Folder: Data/FTIR/Mary/Mechano/CoCrystal (part 2)

File: 2025_07_09_MC_CoCrystal_CBD_LPro_Scan1.csv
Created as New Dataset,Sample 804 By YargerLab Date Wednesday, July 09 2025
cm-1,A
4000.00,0.0020
3987.00,0.0020
3974.00,0.0020
3961.00,0.0021
3948.00,0.0020
3935.00,0.0019
3922.00,0.0019
3909.00,0.0018
3896.00,0.0017
3883.00,0.0017
3870.00,0.0016
3857.00,0.0016
3844.00,0.0016
3831.00,0.0015
3818.00,0.0013
3805.00,0.0014
3792.00,0.0015
3779.00,0.0015
3766.00,0.0014
3753.00,0.0013
3740.00,0.0012
3727.00,0.0012
3714.00,0.0012
3701.00,0.0012
3688.00,0.0012
3675.00,0.0012
3662.00,0.0014
3649.00,0.0013
3636.00,0.0016
3623.00,0.0020
3610.00,0.0023
3597.00,0.0028
3584.00,0.0032
3571.00,0.0043
3558.00,0.0057
3545.00,0.0077
3532.00,0.0118
3519.00,0.0187
3506.00,0.0174
3493.00,0.0217
3480.00,0.0296
3467.00,0.0449
3454.00,0.0942
3441.00,0.0753
3428.00,0.0498
3415.00,0.0456
3402.00,0.0413
3389.00,0.0348
3376.00,0.0314
3363.00,0.0290
3350.00,0.0272
3337.00,0.0256
3324.00,0.0247
3311.00,0.0243
3298.00,0.0243
3285.00,0.0251
3272.00,0.0258
3259.00,0.0276
3246.00,0.0285
3233.00,0.0298
3220.00,0.0313
3207.00,0.0330
3194.00,0.0342
3181.00,0.0349
3168.00,0.0353
3155.00,0.0352
3142.00,0.0369
3129.00,0.0383
3116.00,0.0391
3103.00,0.0409
3090.00,0.0414
3077.00,0.0457
3064.00,0.0444
3051.00,0.0370
3038.00,0.0363
3025.00,0.0344
3012.00,0.0328
2999.00,0.0353
2986.00,0.0426
2973.00,0.0573
2960.00,0.0807
2947.00,0.0806
2934.00,0.1175
2921.00,0.1510
2908.00,0.0998
2895.00,0.0712
2882.00,0.0637
2869.00,0.0752
2856.00,0.0917
2843.00,0.0548
2830.00,0.0495
2817.00,0.0295
2804.00,0.0253
2791.00,0.0235
2778.00,0.0233
2765.00,0.0243
2752.00,0.0250
2739.00,0.0258
2726.00,0.0271
2713.00,0.0265
2700.00,0.0268
2687.00,0.0271
2674.00,0.0271
2661.00,0.0276
2648.00,0.0265
2635.00,0.0258
2622.00,0.0253
2609.00,0.0247
2596.00,0.0237
2583.00,0.0227
2570.00,0.0225
2557.00,0.0233
2544.00,0.0227
2531.00,0.0214
2518.00,0.0207
2505.00,0.0193
2492.00,0.0187
2479.00,0.0187
2466.00,0.0184
2453.00,0.0190
2440.00,0.0188
2427.00,0.0183
2414.00,0.0175
2401.00,0.0158
2388.00,0.0143
2375.00,0.0129
2362.00,0.0117
2349.00,0.0107
2336.00,0.0100
2323.00,0.0099
2310.00,0.0084
2297.00,0.0079
2284.00,0.0074
2271.00,0.0066
2258.00,0.0066
2245.00,0.0056
2232.00,0.0053
2219.00,0.0050
2206.00,0.0042
2193.00,0.0042
2180.00,0.0037
2167.00,0.0044
2154.00,0.0007
2141.00,0.0015
2128.00,0.0015
2115.00,0.0024
2102.00,0.0020
2089.00,0.0021
2076.00,0.0018
2063.00,0.0011
2050.00,0.0017
2037.00,0.0011
2024.00,0.0007
2011.00,0.0009
1998.00,0.0010
1985.00,0.0023
1972.00,0.0006
1959.00,0.0007
1946.00,0.0014
1933.00,0.0015
1920.00,0.0021
1907.00,0.0019
1894.00,0.0018
1881.00,0.0020
1868.00,0.0023
1855.00,0.0024
1842.00,0.0027
1829.00,0.0027
1816.00,0.0028
1803.00,0.0037
1790.00,0.0048
1777.00,0.0055
1764.00,0.0050
1751.00,0.0052
1738.00,0.0052
1725.00,0.0064
1712.00,0.0073
1699.00,0.0084
1686.00,0.0095
1673.00,0.0138
1660.00,0.0254
1647.00,0.0711
1634.00,0.1938
1621.00,0.1167
1608.00,0.0556
1595.00,0.0795
1582.00,0.2206
1569.00,0.1917
1556.00,0.1020
1543.00,0.0577
1530.00,0.0527
1517.00,0.0540
1504.00,0.0342
1491.00,0.0274
1478.00,0.0345
1465.00,0.0722
1452.00,0.1660
1439.00,0.2354
1426.00,0.1131
1413.00,0.0777
1400.00,0.0839
1387.00,0.0688
1374.00,0.1092
1361.00,0.0893
1348.00,0.1206
1335.00,0.1099
1322.00,0.1353
1309.00,0.1087
1296.00,0.1000
1283.00,0.1444
1270.00,0.0834
1257.00,0.0589
1244.00,0.1261
1231.00,0.0956
1218.00,0.1194
1205.00,0.1459
1192.00,0.0599
1179.00,0.0721
1166.00,0.0879
1153.00,0.0720
1140.00,0.0373
1127.00,0.0237
1114.00,0.0215
1101.00,0.0419
1088.00,0.0285
1075.00,0.0285
1062.00,0.0407
1049.00,0.0948
1036.00,0.1262
1023.00,0.1251
1010.00,0.0693
997.00,0.0616
984.00,0.0480
971.00,0.0350
958.00,0.0579
945.00,0.0393
932.00,0.0345
919.00,0.0534
906.00,0.0600
893.00,0.1114
880.00,0.1105
867.00,0.0882
854.00,0.1377
841.00,0.1199
828.00,0.1049
815.00,0.0547
802.00,0.0942
789.00,0.0669
776.00,0.0549
763.00,0.0546
750.00,0.0517
737.00,0.0577
724.00,0.0523
711.00,0.0485
698.00,0.0468
685.00,0.0588
672.00,0.0713
659.00,0.0533
646.00,0.0538
633.00,0.0568
620.00,0.0499
607.00,0.0599
594.00,0.0647
581.00,0.0803
568.00,0.0505
555.00,0.0817
542.00,0.0803
529.00,0.0917
516.00,0.0675
503.00,0.0808
490.00,0.1582
477.00,0.1658
464.00,0.1549
451.00,0.1218
438.00,0.1108
425.00,0.0938
412.00,0.0813
400.00,0.0807

File: 2025_07_09_MC_CoCrystal_CBD_LPro_Scan2.csv
Created as New Dataset,Sample 805 By YargerLab Date Wednesday, July 09 2025
cm-1,A
4000.00,0.0018
3987.00,0.0018
3974.00,0.0018
3961.00,0.0020
3948.00,0.0019
3935.00,0.0018
3922.00,0.0018
3909.00,0.0017
3896.00,0.0016
3883.00,0.0016
3870.00,0.0015
3857.00,0.0015
3844.00,0.0015
3831.00,0.0014
3818.00,0.0012
3805.00,0.0012
3792.00,0.0013
3779.00,0.0013
3766.00,0.0012
3753.00,0.0011
3740.00,0.0011
3727.00,0.0010
3714.00,0.0010
3701.00,0.0010
3688.00,0.0010
3675.00,0.0010
3662.00,0.0012
3649.00,0.0011
3636.00,0.0014
3623.00,0.0018
3610.00,0.0022
3597.00,0.0024
3584.00,0.0030
3571.00,0.0040
3558.00,0.0054
3545.00,0.0077
3532.00,0.0134
3519.00,0.0238
3506.00,0.0188
3493.00,0.0225
3480.00,0.0306
3467.00,0.0467
3454.00,0.0975
3441.00,0.0788
3428.00,0.0540
3415.00,0.0513
3402.00,0.0457
3389.00,0.0360
3376.00,0.0313
3363.00,0.0284
3350.00,0.0264
3337.00,0.0248
3324.00,0.0239
3311.00,0.0236
3298.00,0.0238
3285.00,0.0248
3272.00,0.0255
3259.00,0.0274
3246.00,0.0284
3233.00,0.0299
3220.00,0.0315
3207.00,0.0332
3194.00,0.0345
3181.00,0.0353
3168.00,0.0358
3155.00,0.0356
3142.00,0.0374
3129.00,0.0387
3116.00,0.0395
3103.00,0.0415
3090.00,0.0420
3077.00,0.0470
3064.00,0.0452
3051.00,0.0376
3038.00,0.0369
3025.00,0.0351
3012.00,0.0334
2999.00,0.0360
2986.00,0.0438
2973.00,0.0598
2960.00,0.0837
2947.00,0.0827
2934.00,0.1215
2921.00,0.1578
2908.00,0.1045
2895.00,0.0740
2882.00,0.0661
2869.00,0.0780
2856.00,0.0971
2843.00,0.0566
2830.00,0.0527
2817.00,0.0306
2804.00,0.0261
2791.00,0.0242
2778.00,0.0239
2765.00,0.0249
2752.00,0.0256
2739.00,0.0265
2726.00,0.0279
2713.00,0.0271
2700.00,0.0274
2687.00,0.0278
2674.00,0.0278
2661.00,0.0283
2648.00,0.0272
2635.00,0.0264
2622.00,0.0259
2609.00,0.0253
2596.00,0.0243
2583.00,0.0233
2570.00,0.0231
2557.00,0.0240
2544.00,0.0232
2531.00,0.0220
2518.00,0.0212
2505.00,0.0198
2492.00,0.0192
2479.00,0.0192
2466.00,0.0189
2453.00,0.0195
2440.00,0.0194
2427.00,0.0189
2414.00,0.0181
2401.00,0.0163
2388.00,0.0147
2375.00,0.0133
2362.00,0.0121
2349.00,0.0110
2336.00,0.0102
2323.00,0.0100
2310.00,0.0084
2297.00,0.0079
2284.00,0.0076
2271.00,0.0066
2258.00,0.0066
2245.00,0.0058
2232.00,0.0054
2219.00,0.0051
2206.00,0.0045
2193.00,0.0041
2180.00,0.0038
2167.00,0.0047
2154.00,0.0010
2141.00,0.0017
2128.00,0.0016
2115.00,0.0023
2102.00,0.0020
2089.00,0.0021
2076.00,0.0018
2063.00,0.0009
2050.00,0.0018
2037.00,0.0013
2024.00,0.0010
2011.00,0.0008
1998.00,0.0009
1985.00,0.0022
1972.00,0.0008
1959.00,0.0009
1946.00,0.0015
1933.00,0.0016
1920.00,0.0022
1907.00,0.0019
1894.00,0.0018
1881.00,0.0021
1868.00,0.0024
1855.00,0.0024
1842.00,0.0028
1829.00,0.0028
1816.00,0.0028
1803.00,0.0039
1790.00,0.0049
1777.00,0.0057
1764.00,0.0052
1751.00,0.0054
1738.00,0.0053
1725.00,0.0065
1712.00,0.0075
1699.00,0.0087
1686.00,0.0098
1673.00,0.0140
1660.00,0.0259
1647.00,0.0731
1634.00,0.1988
1621.00,0.1240
1608.00,0.0579
1595.00,0.0819
1582.00,0.2323
1569.00,0.1991
1556.00,0.1065
1543.00,0.0602
1530.00,0.0545
1517.00,0.0563
1504.00,0.0356
1491.00,0.0285
1478.00,0.0357
1465.00,0.0753
1452.00,0.1720
1439.00,0.2482
1426.00,0.1167
1413.00,0.0804
1400.00,0.0870
1387.00,0.0712
1374.00,0.1153
1361.00,0.0928
1348.00,0.1247
1335.00,0.1132
1322.00,0.1408
1309.00,0.1139
1296.00,0.1056
1283.00,0.1517
1270.00,0.0878
1257.00,0.0603
1244.00,0.1286
1231.00,0.0997
1218.00,0.1332
1205.00,0.1552
1192.00,0.0619
1179.00,0.0756
1166.00,0.0910
1153.00,0.0747
1140.00,0.0385
1127.00,0.0244
1114.00,0.0220
1101.00,0.0439
1088.00,0.0297
1075.00,0.0301
1062.00,0.0422
1049.00,0.1000
1036.00,0.1322
1023.00,0.1272
1010.00,0.0718
997.00,0.0646
984.00,0.0503
971.00,0.0363
958.00,0.0606
945.00,0.0412
932.00,0.0359
919.00,0.0553
906.00,0.0618
893.00,0.1174
880.00,0.1172
867.00,0.0923
854.00,0.1468
841.00,0.1269
828.00,0.1125
815.00,0.0572
802.00,0.0995
789.00,0.0706
776.00,0.0579
763.00,0.0573
750.00,0.0542
737.00,0.0602
724.00,0.0547
711.00,0.0507
698.00,0.0490
685.00,0.0611
672.00,0.0741
659.00,0.0562
646.00,0.0570
633.00,0.0591
620.00,0.0521
607.00,0.0629
594.00,0.0671
581.00,0.0838
568.00,0.0537
555.00,0.0845
542.00,0.0841
529.00,0.0962
516.00,0.0715
503.00,0.0867
490.00,0.1683
477.00,0.1748
464.00,0.1658
451.00,0.1324
438.00,0.1172
425.00,0.0998
412.00,0.0892
400.00,0.0937

File: 2025_07_09_MC_CoCrystal_CBD_LPro_Scan.csv
Created as New Dataset,Sample 806 By YargerLab Date Wednesday, July 09 2025
cm-1,A
4000.00,0.0019
3987.00,0.0019
3974.00,0.0019
3961.00,0.0020
3948.00,0.0019
3935.00,0.0018
3922.00,0.0018
3909.00,0.0017
3896.00,0.0016
3883.00,0.0016
3870.00,0.0015
3857.00,0.0015
3844.00,0.0015
3831.00,0.0013
3818.00,0.0012
3805.00,0.0012
3792.00,0.0013
3779.00,0.0013
3766.00,0.0012
3753.00,0.0012
3740.00,0.0010
3727.00,0.0011
3714.00,0.0011
3701.00,0.0010
3688.00,0.0010
3675.00,0.0010
3662.00,0.0012
3649.00,0.0011
3636.00,0.0013
3623.00,0.0017
3610.00,0.0021
3597.00,0.0023
3584.00,0.0028
3571.00,0.0038
3558.00,0.0052
3545.00,0.0077
3532.00,0.0141
3519.00,0.0263
3506.00,0.0193
3493.00,0.0226
3480.00,0.0306
3467.00,0.0470
3454.00,0.0977
3441.00,0.0803
3428.00,0.0559
3415.00,0.0539
3402.00,0.0479
3389.00,0.0364
3376.00,0.0310
3363.00,0.0277
3350.00,0.0256
3337.00,0.0241
3324.00,0.0233
3311.00,0.0229
3298.00,0.0232
3285.00,0.0242
3272.00,0.0249
3259.00,0.0270
3246.00,0.0279
3233.00,0.0294
3220.00,0.0310
3207.00,0.0328
3194.00,0.0341
3181.00,0.0348
3168.00,0.0354
3155.00,0.0353
3142.00,0.0371
3129.00,0.0385
3116.00,0.0393
3103.00,0.0412
3090.00,0.0417
3077.00,0.0471
3064.00,0.0448
3051.00,0.0373
3038.00,0.0367
3025.00,0.0349
3012.00,0.0331
2999.00,0.0358
2986.00,0.0435
2973.00,0.0599
2960.00,0.0838
2947.00,0.0825
2934.00,0.1216
2921.00,0.1587
2908.00,0.1055
2895.00,0.0744
2882.00,0.0663
2869.00,0.0781
2856.00,0.0984
2843.00,0.0567
2830.00,0.0536
2817.00,0.0306
2804.00,0.0261
2791.00,0.0241
2778.00,0.0238
2765.00,0.0248
2752.00,0.0254
2739.00,0.0262
2726.00,0.0277
2713.00,0.0269
2700.00,0.0271
2687.00,0.0275
2674.00,0.0275
2661.00,0.0281
2648.00,0.0269
2635.00,0.0262
2622.00,0.0256
2609.00,0.0250
2596.00,0.0240
2583.00,0.0230
2570.00,0.0229
2557.00,0.0237
2544.00,0.0230
2531.00,0.0217
2518.00,0.0210
2505.00,0.0196
2492.00,0.0190
2479.00,0.0190
2466.00,0.0188
2453.00,0.0193
2440.00,0.0192
2427.00,0.0186
2414.00,0.0178
2401.00,0.0161
2388.00,0.0146
2375.00,0.0131
2362.00,0.0118
2349.00,0.0108
2336.00,0.0101
2323.00,0.0099
2310.00,0.0083
2297.00,0.0077
2284.00,0.0074
2271.00,0.0064
2258.00,0.0063
2245.00,0.0055
2232.00,0.0054
2219.00,0.0049
2206.00,0.0044
2193.00,0.0041
2180.00,0.0036
2167.00,0.0043
2154.00,0.0009
2141.00,0.0017
2128.00,0.0016
2115.00,0.0023
2102.00,0.0020
2089.00,0.0019
2076.00,0.0018
2063.00,0.0008
2050.00,0.0017
2037.00,0.0009
2024.00,0.0005
2011.00,0.0007
1998.00,0.0007
1985.00,0.0021
1972.00,0.0007
1959.00,0.0008
1946.00,0.0014
1933.00,0.0016
1920.00,0.0020
1907.00,0.0019
1894.00,0.0019
1881.00,0.0021
1868.00,0.0024
1855.00,0.0023
1842.00,0.0028
1829.00,0.0029
1816.00,0.0028
1803.00,0.0039
1790.00,0.0049
1777.00,0.0057
1764.00,0.0052
1751.00,0.0053
1738.00,0.0054
1725.00,0.0065
1712.00,0.0075
1699.00,0.0089
1686.00,0.0098
1673.00,0.0140
1660.00,0.0258
1647.00,0.0732
1634.00,0.1984
1621.00,0.1264
1608.00,0.0581
1595.00,0.0815
1582.00,0.2340
1569.00,0.1978
1556.00,0.1056
1543.00,0.0599
1530.00,0.0541
1517.00,0.0563
1504.00,0.0358
1491.00,0.0284
1478.00,0.0355
1465.00,0.0755
1452.00,0.1715
1439.00,0.2496
1426.00,0.1160
1413.00,0.0795
1400.00,0.0860
1387.00,0.0702
1374.00,0.1154
1361.00,0.0914
1348.00,0.1225
1335.00,0.1114
1322.00,0.1392
1309.00,0.1135
1296.00,0.1051
1283.00,0.1501
1270.00,0.0868
1257.00,0.0590
1244.00,0.1262
1231.00,0.0995
1218.00,0.1380
1205.00,0.1567
1192.00,0.0616
1179.00,0.0757
1166.00,0.0896
1153.00,0.0743
1140.00,0.0379
1127.00,0.0240
1114.00,0.0217
1101.00,0.0440
1088.00,0.0294
1075.00,0.0301
1062.00,0.0419
1049.00,0.1006
1036.00,0.1324
1023.00,0.1256
1010.00,0.0716
997.00,0.0650
984.00,0.0503
971.00,0.0362
958.00,0.0605
945.00,0.0408
932.00,0.0356
919.00,0.0548
906.00,0.0613
893.00,0.1181
880.00,0.1186
867.00,0.0919
854.00,0.1465
841.00,0.1256
828.00,0.1125
815.00,0.0564
802.00,0.0997
789.00,0.0698
776.00,0.0571
763.00,0.0562
750.00,0.0535
737.00,0.0592
724.00,0.0535
711.00,0.0496
698.00,0.0476
685.00,0.0594
672.00,0.0721
659.00,0.0554
646.00,0.0562
633.00,0.0583
620.00,0.0512
607.00,0.0613
594.00,0.0664
581.00,0.0832
568.00,0.0534
555.00,0.0836
542.00,0.0840
529.00,0.0955
516.00,0.0712
503.00,0.0880
490.00,0.1690
477.00,0.1729
464.00,0.1642
451.00,0.1313
438.00,0.1157
425.00,0.1023
412.00,0.0888
400.00,0.0965