Folder: Data/FTIR/Mary/Mechano/CoCrystal

Note: FTIR/README
YargerLab FT-IR Data Repo

File: 2025_07_09_CBD_MC_Pre_Scan1.csv
Created as New Dataset,Sample 798 By YargerLab Date Wednesday, July 09 2025
cm-1,A
4000.00,0.0054
3987.00,0.0055
3974.00,0.0055
3961.00,0.0055
3948.00,0.0056
3935.00,0.0056
3922.00,0.0056
3909.00,0.0055
3896.00,0.0054
3883.00,0.0054
3870.00,0.0054
3857.00,0.0053
3844.00,0.0054
3831.00,0.0053
3818.00,0.0052
3805.00,0.0052
3792.00,0.0053
3779.00,0.0052
3766.00,0.0052
3753.00,0.0051
3740.00,0.0050
3727.00,0.0050
3714.00,0.0051
3701.00,0.0051
3688.00,0.0049
3675.00,0.0048
3662.00,0.0050
3649.00,0.0047
3636.00,0.0048
3623.00,0.0048
3610.00,0.0050
3597.00,0.0051
3584.00,0.0052
3571.00,0.0056
3558.00,0.0064
3545.00,0.0083
3532.00,0.0157
3519.00,0.0362
3506.00,0.0217
3493.00,0.0180
3480.00,0.0202
3467.00,0.0250
3454.00,0.0312
3441.00,0.0372
3428.00,0.0427
3415.00,0.0508
3402.00,0.0519
3389.00,0.0348
3376.00,0.0247
3363.00,0.0192
3350.00,0.0157
3337.00,0.0134
3324.00,0.0119
3311.00,0.0107
3298.00,0.0098
3285.00,0.0091
3272.00,0.0085
3259.00,0.0084
3246.00,0.0081
3233.00,0.0077
3220.00,0.0075
3207.00,0.0074
3194.00,0.0073
3181.00,0.0073
3168.00,0.0074
3155.00,0.0072
3142.00,0.0071
3129.00,0.0070
3116.00,0.0069
3103.00,0.0069
3090.00,0.0072
3077.00,0.0127
3064.00,0.0083
3051.00,0.0076
3038.00,0.0087
3025.00,0.0085
3012.00,0.0085
2999.00,0.0098
2986.00,0.0127
2973.00,0.0239
2960.00,0.0331
2947.00,0.0291
2934.00,0.0482
2921.00,0.0605
2908.00,0.0468
2895.00,0.0323
2882.00,0.0274
2869.00,0.0304
2856.00,0.0469
2843.00,0.0215
2830.00,0.0266
2817.00,0.0132
2804.00,0.0106
2791.00,0.0094
2778.00,0.0087
2765.00,0.0082
2752.00,0.0080
2739.00,0.0083
2726.00,0.0091
2713.00,0.0079
2700.00,0.0075
2687.00,0.0076
2674.00,0.0079
2661.00,0.0083
2648.00,0.0081
2635.00,0.0079
2622.00,0.0079
2609.00,0.0078
2596.00,0.0076
2583.00,0.0074
2570.00,0.0074
2557.00,0.0073
2544.00,0.0072
2531.00,0.0071
2518.00,0.0071
2505.00,0.0070
2492.00,0.0070
2479.00,0.0071
2466.00,0.0071
2453.00,0.0073
2440.00,0.0068
2427.00,0.0065
2414.00,0.0063
2401.00,0.0061
2388.00,0.0060
2375.00,0.0057
2362.00,0.0056
2349.00,0.0057
2336.00,0.0060
2323.00,0.0071
2310.00,0.0062
2297.00,0.0065
2284.00,0.0071
2271.00,0.0065
2258.00,0.0064
2245.00,0.0063
2232.00,0.0064
2219.00,0.0061
2206.00,0.0061
2193.00,0.0059
2180.00,0.0058
2167.00,0.0070
2154.00,0.0031
2141.00,0.0041
2128.00,0.0043
2115.00,0.0055
2102.00,0.0052
2089.00,0.0052
2076.00,0.0056
2063.00,0.0049
2050.00,0.0062
2037.00,0.0049
2024.00,0.0041
2011.00,0.0043
1998.00,0.0042
1985.00,0.0060
1972.00,0.0042
1959.00,0.0038
1946.00,0.0043
1933.00,0.0045
1920.00,0.0047
1907.00,0.0050
1894.00,0.0051
1881.00,0.0051
1868.00,0.0051
1855.00,0.0051
1842.00,0.0052
1829.00,0.0054
1816.00,0.0054
1803.00,0.0063
1790.00,0.0059
1777.00,0.0062
1764.00,0.0062
1751.00,0.0060
1738.00,0.0062
1725.00,0.0065
1712.00,0.0070
1699.00,0.0076
1686.00,0.0082
1673.00,0.0093
1660.00,0.0120
1647.00,0.0239
1634.00,0.0436
1621.00,0.0607
1608.00,0.0202
1595.00,0.0230
1582.00,0.0780
1569.00,0.0285
1556.00,0.0138
1543.00,0.0109
1530.00,0.0110
1517.00,0.0209
1504.00,0.0152
1491.00,0.0112
1478.00,0.0112
1465.00,0.0302
1452.00,0.0523
1439.00,0.0902
1426.00,0.0417
1413.00,0.0166
1400.00,0.0138
1387.00,0.0140
1374.00,0.0429
1361.00,0.0216
1348.00,0.0216
1335.00,0.0216
1322.00,0.0289
1309.00,0.0410
1296.00,0.0399
1283.00,0.0394
1270.00,0.0298
1257.00,0.0160
1244.00,0.0252
1231.00,0.0454
1218.00,0.0960
1205.00,0.0696
1192.00,0.0312
1179.00,0.0395
1166.00,0.0275
1153.00,0.0365
1140.00,0.0187
1127.00,0.0151
1114.00,0.0145
1101.00,0.0233
1088.00,0.0165
1075.00,0.0209
1062.00,0.0180
1049.00,0.0499
1036.00,0.0437
1023.00,0.0556
1010.00,0.0446
997.00,0.0391
984.00,0.0324
971.00,0.0240
958.00,0.0318
945.00,0.0168
932.00,0.0166
919.00,0.0184
906.00,0.0268
893.00,0.0618
880.00,0.0654
867.00,0.0398
854.00,0.0536
841.00,0.0442
828.00,0.0556
815.00,0.0265
802.00,0.0421
789.00,0.0231
776.00,0.0203
763.00,0.0167
750.00,0.0253
737.00,0.0172
724.00,0.0192
711.00,0.0155
698.00,0.0135
685.00,0.0138
672.00,0.0193
659.00,0.0256
646.00,0.0262
633.00,0.0213
620.00,0.0235
607.00,0.0277
594.00,0.0339
581.00,0.0371
568.00,0.0362
555.00,0.0370
542.00,0.0489
529.00,0.0554
516.00,0.0504
503.00,0.0632
490.00,0.0783
477.00,0.0667
464.00,0.0743
451.00,0.0693
438.00,0.0579
425.00,0.0736
412.00,0.0736
400.00,0.0899

File: 2025_07_09_CBD_MC_Pre_Scan2.csv
Created as New Dataset,Sample 799 By YargerLab Date Wednesday, July 09 2025
cm-1,A
4000.00,0.0052
3987.00,0.0052
3974.00,0.0053
3961.00,0.0054
3948.00,0.0054
3935.00,0.0054
3922.00,0.0055
3909.00,0.0053
3896.00,0.0052
3883.00,0.0052
3870.00,0.0051
3857.00,0.0050
3844.00,0.0051
3831.00,0.0050
3818.00,0.0049
3805.00,0.0049
3792.00,0.0050
3779.00,0.0049
3766.00,0.0050
3753.00,0.0049
3740.00,0.0047
3727.00,0.0046
3714.00,0.0047
3701.00,0.0046
3688.00,0.0046
3675.00,0.0046
3662.00,0.0046
3649.00,0.0045
3636.00,0.0046
3623.00,0.0046
3610.00,0.0048
3597.00,0.0049
3584.00,0.0052
3571.00,0.0058
3558.00,0.0070
3545.00,0.0098
3532.00,0.0208
3519.00,0.0499
3506.00,0.0281
3493.00,0.0236
3480.00,0.0271
3467.00,0.0343
3454.00,0.0435
3441.00,0.0522
3428.00,0.0603
3415.00,0.0721
3402.00,0.0724
3389.00,0.0463
3376.00,0.0320
3363.00,0.0243
3350.00,0.0194
3337.00,0.0161
3324.00,0.0140
3311.00,0.0124
3298.00,0.0110
3285.00,0.0101
3272.00,0.0092
3259.00,0.0089
3246.00,0.0085
3233.00,0.0080
3220.00,0.0079
3207.00,0.0078
3194.00,0.0075
3181.00,0.0075
3168.00,0.0076
3155.00,0.0074
3142.00,0.0073
3129.00,0.0072
3116.00,0.0071
3103.00,0.0072
3090.00,0.0077
3077.00,0.0155
3064.00,0.0092
3051.00,0.0082
3038.00,0.0098
3025.00,0.0096
3012.00,0.0096
2999.00,0.0116
2986.00,0.0158
2973.00,0.0321
2960.00,0.0461
2947.00,0.0398
2934.00,0.0685
2921.00,0.0872
2908.00,0.0657
2895.00,0.0439
2882.00,0.0366
2869.00,0.0412
2856.00,0.0661
2843.00,0.0276
2830.00,0.0354
2817.00,0.0153
2804.00,0.0117
2791.00,0.0101
2778.00,0.0090
2765.00,0.0084
2752.00,0.0081
2739.00,0.0086
2726.00,0.0097
2713.00,0.0081
2700.00,0.0076
2687.00,0.0077
2674.00,0.0081
2661.00,0.0084
2648.00,0.0082
2635.00,0.0079
2622.00,0.0079
2609.00,0.0077
2596.00,0.0074
2583.00,0.0073
2570.00,0.0073
2557.00,0.0072
2544.00,0.0070
2531.00,0.0070
2518.00,0.0069
2505.00,0.0069
2492.00,0.0070
2479.00,0.0070
2466.00,0.0070
2453.00,0.0073
2440.00,0.0067
2427.00,0.0062
2414.00,0.0059
2401.00,0.0057
2388.00,0.0057
2375.00,0.0053
2362.00,0.0052
2349.00,0.0052
2336.00,0.0056
2323.00,0.0067
2310.00,0.0057
2297.00,0.0059
2284.00,0.0066
2271.00,0.0059
2258.00,0.0058
2245.00,0.0057
2232.00,0.0057
2219.00,0.0055
2206.00,0.0055
2193.00,0.0056
2180.00,0.0051
2167.00,0.0063
2154.00,0.0024
2141.00,0.0031
2128.00,0.0036
2115.00,0.0048
2102.00,0.0045
2089.00,0.0046
2076.00,0.0048
2063.00,0.0042
2050.00,0.0052
2037.00,0.0041
2024.00,0.0031
2011.00,0.0034
1998.00,0.0035
1985.00,0.0049
1972.00,0.0031
1959.00,0.0029
1946.00,0.0034
1933.00,0.0037
1920.00,0.0039
1907.00,0.0042
1894.00,0.0043
1881.00,0.0045
1868.00,0.0045
1855.00,0.0045
1842.00,0.0046
1829.00,0.0048
1816.00,0.0048
1803.00,0.0061
1790.00,0.0055
1777.00,0.0061
1764.00,0.0060
1751.00,0.0057
1738.00,0.0059
1725.00,0.0063
1712.00,0.0070
1699.00,0.0079
1686.00,0.0083
1673.00,0.0102
1660.00,0.0144
1647.00,0.0319
1634.00,0.0612
1621.00,0.0867
1608.00,0.0259
1595.00,0.0302
1582.00,0.1116
1569.00,0.0371
1556.00,0.0162
1543.00,0.0123
1530.00,0.0126
1517.00,0.0270
1504.00,0.0187
1491.00,0.0130
1478.00,0.0132
1465.00,0.0408
1452.00,0.0737
1439.00,0.1303
1426.00,0.0554
1413.00,0.0196
1400.00,0.0159
1387.00,0.0166
1374.00,0.0587
1361.00,0.0273
1348.00,0.0278
1335.00,0.0278
1322.00,0.0385
1309.00,0.0563
1296.00,0.0546
1283.00,0.0534
1270.00,0.0391
1257.00,0.0197
1244.00,0.0336
1231.00,0.0631
1218.00,0.1405
1205.00,0.0972
1192.00,0.0403
1179.00,0.0531
1166.00,0.0349
1153.00,0.0492
1140.00,0.0222
1127.00,0.0172
1114.00,0.0167
1101.00,0.0299
1088.00,0.0197
1075.00,0.0261
1062.00,0.0223
1049.00,0.0693
1036.00,0.0600
1023.00,0.0779
1010.00,0.0602
997.00,0.0522
984.00,0.0424
971.00,0.0301
958.00,0.0414
945.00,0.0196
932.00,0.0196
919.00,0.0225
906.00,0.0349
893.00,0.0877
880.00,0.0904
867.00,0.0529
854.00,0.0730
841.00,0.0588
828.00,0.0755
815.00,0.0326
802.00,0.0556
789.00,0.0277
776.00,0.0240
763.00,0.0188
750.00,0.0312
737.00,0.0196
724.00,0.0223
711.00,0.0173
698.00,0.0145
685.00,0.0153
672.00,0.0232
659.00,0.0317
646.00,0.0322
633.00,0.0255
620.00,0.0285
607.00,0.0347
594.00,0.0432
581.00,0.0482
568.00,0.0461
555.00,0.0479
542.00,0.0643
529.00,0.0746
516.00,0.0668
503.00,0.0850
490.00,0.1076
477.00,0.0902
464.00,0.1013
451.00,0.0946
438.00,0.0778
425.00,0.1015
412.00,0.0970
400.00,0.1199

File: 2025_07_09_CBD_MC_Pre_Scan3.csv
Created as New Dataset,Sample 800 By YargerLab Date Wednesday, July 09 2025
cm-1,A
4000.00,0.0056
3987.00,0.0057
3974.00,0.0058
3961.00,0.0058
3948.00,0.0059
3935.00,0.0059
3922.00,0.0059
3909.00,0.0058
3896.00,0.0057
3883.00,0.0057
3870.00,0.0057
3857.00,0.0055
3844.00,0.0056
3831.00,0.0055
3818.00,0.0055
3805.00,0.0054
3792.00,0.0054
3779.00,0.0054
3766.00,0.0054
3753.00,0.0054
3740.00,0.0051
3727.00,0.0051
3714.00,0.0052
3701.00,0.0051
3688.00,0.0051
3675.00,0.0050
3662.00,0.0050
3649.00,0.0049
3636.00,0.0050
3623.00,0.0050
3610.00,0.0052
3597.00,0.0053
3584.00,0.0056
3571.00,0.0061
3558.00,0.0072
3545.00,0.0100
3532.00,0.0205
3519.00,0.0485
3506.00,0.0276
3493.00,0.0232
3480.00,0.0265
3467.00,0.0334
3454.00,0.0423
3441.00,0.0507
3428.00,0.0584
3415.00,0.0698
3402.00,0.0702
3389.00,0.0452
3376.00,0.0313
3363.00,0.0239
3350.00,0.0192
3337.00,0.0160
3324.00,0.0139
3311.00,0.0124
3298.00,0.0112
3285.00,0.0102
3272.00,0.0093
3259.00,0.0091
3246.00,0.0087
3233.00,0.0082
3220.00,0.0080
3207.00,0.0080
3194.00,0.0077
3181.00,0.0078
3168.00,0.0078
3155.00,0.0076
3142.00,0.0075
3129.00,0.0074
3116.00,0.0074
3103.00,0.0074
3090.00,0.0079
3077.00,0.0154
3064.00,0.0094
3051.00,0.0084
3038.00,0.0100
3025.00,0.0097
3012.00,0.0097
2999.00,0.0116
2986.00,0.0155
2973.00,0.0311
2960.00,0.0445
2947.00,0.0383
2934.00,0.0657
2921.00,0.0836
2908.00,0.0633
2895.00,0.0424
2882.00,0.0355
2869.00,0.0399
2856.00,0.0635
2843.00,0.0270
2830.00,0.0344
2817.00,0.0153
2804.00,0.0119
2791.00,0.0103
2778.00,0.0093
2765.00,0.0087
2752.00,0.0085
2739.00,0.0089
2726.00,0.0100
2713.00,0.0084
2700.00,0.0079
2687.00,0.0080
2674.00,0.0084
2661.00,0.0088
2648.00,0.0085
2635.00,0.0082
2622.00,0.0082
2609.00,0.0080
2596.00,0.0079
2583.00,0.0077
2570.00,0.0077
2557.00,0.0076
2544.00,0.0074
2531.00,0.0073
2518.00,0.0073
2505.00,0.0072
2492.00,0.0072
2479.00,0.0073
2466.00,0.0074
2453.00,0.0076
2440.00,0.0071
2427.00,0.0066
2414.00,0.0064
2401.00,0.0062
2388.00,0.0061
2375.00,0.0055
2362.00,0.0055
2349.00,0.0056
2336.00,0.0059
2323.00,0.0069
2310.00,0.0059
2297.00,0.0062
2284.00,0.0069
2271.00,0.0063
2258.00,0.0063
2245.00,0.0061
2232.00,0.0060
2219.00,0.0059
2206.00,0.0059
2193.00,0.0059
2180.00,0.0056
2167.00,0.0067
2154.00,0.0028
2141.00,0.0036
2128.00,0.0041
2115.00,0.0052
2102.00,0.0050
2089.00,0.0050
2076.00,0.0051
2063.00,0.0046
2050.00,0.0056
2037.00,0.0043
2024.00,0.0037
2011.00,0.0040
1998.00,0.0038
1985.00,0.0052
1972.00,0.0040
1959.00,0.0034
1946.00,0.0039
1933.00,0.0040
1920.00,0.0043
1907.00,0.0047
1894.00,0.0048
1881.00,0.0049
1868.00,0.0049
1855.00,0.0050
1842.00,0.0050
1829.00,0.0052
1816.00,0.0052
1803.00,0.0065
1790.00,0.0060
1777.00,0.0064
1764.00,0.0063
1751.00,0.0060
1738.00,0.0062
1725.00,0.0066
1712.00,0.0071
1699.00,0.0079
1686.00,0.0081
1673.00,0.0096
1660.00,0.0136
1647.00,0.0302
1634.00,0.0582
1621.00,0.0826
1608.00,0.0251
1595.00,0.0291
1582.00,0.1068
1569.00,0.0361
1556.00,0.0160
1543.00,0.0124
1530.00,0.0126
1517.00,0.0262
1504.00,0.0183
1491.00,0.0130
1478.00,0.0130
1465.00,0.0391
1452.00,0.0704
1439.00,0.1243
1426.00,0.0533
1413.00,0.0193
1400.00,0.0158
1387.00,0.0163
1374.00,0.0562
1361.00,0.0265
1348.00,0.0269
1335.00,0.0270
1322.00,0.0371
1309.00,0.0540
1296.00,0.0522
1283.00,0.0512
1270.00,0.0378
1257.00,0.0192
1244.00,0.0324
1231.00,0.0606
1218.00,0.1342
1205.00,0.0935
1192.00,0.0390
1179.00,0.0511
1166.00,0.0339
1153.00,0.0471
1140.00,0.0216
1127.00,0.0170
1114.00,0.0163
1101.00,0.0287
1088.00,0.0193
1075.00,0.0253
1062.00,0.0216
1049.00,0.0666
1036.00,0.0576
1023.00,0.0749
1010.00,0.0582
997.00,0.0503
984.00,0.0410
971.00,0.0291
958.00,0.0400
945.00,0.0192
932.00,0.0191
919.00,0.0218
906.00,0.0337
893.00,0.0837
880.00,0.0863
867.00,0.0508
854.00,0.0697
841.00,0.0562
828.00,0.0722
815.00,0.0315
802.00,0.0534
789.00,0.0269
776.00,0.0234
763.00,0.0186
750.00,0.0302
737.00,0.0192
724.00,0.0219
711.00,0.0171
698.00,0.0145
685.00,0.0151
672.00,0.0225
659.00,0.0307
646.00,0.0312
633.00,0.0247
620.00,0.0278
607.00,0.0336
594.00,0.0417
581.00,0.0461
568.00,0.0442
555.00,0.0457
542.00,0.0611
529.00,0.0711
516.00,0.0636
503.00,0.0808
490.00,0.1028
477.00,0.0868
464.00,0.0961
451.00,0.0901
438.00,0.0745
425.00,0.0942
412.00,0.0906
400.00,0.1152

File: 2025_07_09_L_Proline_MC_Lot_131547_25G_Scan1.csv
Created as New Dataset,Sample 801 By YargerLab Date Wednesday, July 09 2025
cm-1,A
4000.00,0.0101
3987.00,0.0102
3974.00,0.0101
3961.00,0.0101
3948.00,0.0102
3935.00,0.0101
3922.00,0.0101
3909.00,0.0101
3896.00,0.0101
3883.00,0.0100
3870.00,0.0102
3857.00,0.0100
3844.00,0.0100
3831.00,0.0100
3818.00,0.0099
3805.00,0.0099
3792.00,0.0099
3779.00,0.0098
3766.00,0.0098
3753.00,0.0097
3740.00,0.0096
3727.00,0.0093
3714.00,0.0093
3701.00,0.0092
3688.00,0.0092
3675.00,0.0092
3662.00,0.0093
3649.00,0.0091
3636.00,0.0091
3623.00,0.0090
3610.00,0.0092
3597.00,0.0090
3584.00,0.0090
3571.00,0.0091
3558.00,0.0093
3545.00,0.0093
3532.00,0.0096
3519.00,0.0102
3506.00,0.0098
3493.00,0.0097
3480.00,0.0098
3467.00,0.0099
3454.00,0.0101
3441.00,0.0103
3428.00,0.0104
3415.00,0.0106
3402.00,0.0106
3389.00,0.0102
3376.00,0.0099
3363.00,0.0098
3350.00,0.0096
3337.00,0.0095
3324.00,0.0094
3311.00,0.0094
3298.00,0.0094
3285.00,0.0096
3272.00,0.0095
3259.00,0.0100
3246.00,0.0105
3233.00,0.0108
3220.00,0.0116
3207.00,0.0125
3194.00,0.0135
3181.00,0.0147
3168.00,0.0159
3155.00,0.0172
3142.00,0.0191
3129.00,0.0217
3116.00,0.0247
3103.00,0.0305
3090.00,0.0376
3077.00,0.0478
3064.00,0.0583
3051.00,0.0634
3038.00,0.0615
3025.00,0.0562
3012.00,0.0556
2999.00,0.0536
2986.00,0.0680
2973.00,0.0586
2960.00,0.0557
2947.00,0.0530
2934.00,0.0492
2921.00,0.0470
2908.00,0.0448
2895.00,0.0429
2882.00,0.0425
2869.00,0.0416
2856.00,0.0413
2843.00,0.0408
2830.00,0.0417
2817.00,0.0447
2804.00,0.0475
2791.00,0.0490
2778.00,0.0512
2765.00,0.0487
2752.00,0.0453
2739.00,0.0430
2726.00,0.0420
2713.00,0.0417
2700.00,0.0422
2687.00,0.0437
2674.00,0.0449
2661.00,0.0457
2648.00,0.0466
2635.00,0.0467
2622.00,0.0468
2609.00,0.0462
2596.00,0.0464
2583.00,0.0468
2570.00,0.0463
2557.00,0.0461
2544.00,0.0461
2531.00,0.0477
2518.00,0.0499
2505.00,0.0519
2492.00,0.0516
2479.00,0.0510
2466.00,0.0510
2453.00,0.0502
2440.00,0.0503
2427.00,0.0529
2414.00,0.0561
2401.00,0.0591
2388.00,0.0611
2375.00,0.0597
2362.00,0.0585
2349.00,0.0570
2336.00,0.0555
2323.00,0.0545
2310.00,0.0510
2297.00,0.0500
2284.00,0.0486
2271.00,0.0459
2258.00,0.0436
2245.00,0.0412
2232.00,0.0392
2219.00,0.0374
2206.00,0.0359
2193.00,0.0343
2180.00,0.0315
2167.00,0.0303
2154.00,0.0254
2141.00,0.0243
2128.00,0.0232
2115.00,0.0229
2102.00,0.0214
2089.00,0.0203
2076.00,0.0194
2063.00,0.0179
2050.00,0.0185
2037.00,0.0172
2024.00,0.0157
2011.00,0.0155
1998.00,0.0157
1985.00,0.0168
1972.00,0.0141
1959.00,0.0134
1946.00,0.0135
1933.00,0.0129
1920.00,0.0127
1907.00,0.0122
1894.00,0.0114
1881.00,0.0114
1868.00,0.0110
1855.00,0.0110
1842.00,0.0112
1829.00,0.0108
1816.00,0.0107
1803.00,0.0108
1790.00,0.0107
1777.00,0.0108
1764.00,0.0113
1751.00,0.0115
1738.00,0.0117
1725.00,0.0120
1712.00,0.0127
1699.00,0.0139
1686.00,0.0154
1673.00,0.0174
1660.00,0.0191
1647.00,0.0248
1634.00,0.0564
1621.00,0.1263
1608.00,0.1407
1595.00,0.1074
1582.00,0.1062
1569.00,0.1386
1556.00,0.1776
1543.00,0.1651
1530.00,0.1358
1517.00,0.1055
1504.00,0.0849
1491.00,0.0694
1478.00,0.0805
1465.00,0.0765
1452.00,0.1149
1439.00,0.1139
1426.00,0.0903
1413.00,0.1336
1400.00,0.1553
1387.00,0.1729
1374.00,0.2264
1361.00,0.1621
1348.00,0.1144
1335.00,0.0838
1322.00,0.0874
1309.00,0.0678
1296.00,0.1239
1283.00,0.1145
1270.00,0.0705
1257.00,0.0889
1244.00,0.0636
1231.00,0.0515
1218.00,0.0451
1205.00,0.0391
1192.00,0.0345
1179.00,0.0360
1166.00,0.0602
1153.00,0.0352
1140.00,0.0288
1127.00,0.0262
1114.00,0.0244
1101.00,0.0264
1088.00,0.0577
1075.00,0.0326
1062.00,0.0325
1049.00,0.0470
1036.00,0.0885
1023.00,0.0417
1010.00,0.0276
997.00,0.0296
984.00,0.0541
971.00,0.0279
958.00,0.0265
945.00,0.0556
932.00,0.0298
919.00,0.0498
906.00,0.0444
893.00,0.0328
880.00,0.0358
867.00,0.0428
854.00,0.0759
841.00,0.0840
828.00,0.0653
815.00,0.0430
802.00,0.0611
789.00,0.0974
776.00,0.0512
763.00,0.0327
750.00,0.0261
737.00,0.0230
724.00,0.0231
711.00,0.0305
698.00,0.0550
685.00,0.0558
672.00,0.0638
659.00,0.0692
646.00,0.1292
633.00,0.1144
620.00,0.0541
607.00,0.0328
594.00,0.0263
581.00,0.0299
568.00,0.0304
555.00,0.0227
542.00,0.0229
529.00,0.0237
516.00,0.0255
503.00,0.0266
490.00,0.0281
477.00,0.0344
464.00,0.0744
451.00,0.1992
438.00,0.0860
425.00,0.0542
412.00,0.0583
400.00,0.0802

File: 2025_07_09_L_Proline_MC_Lot_131547_25G_Scan2.csv
Created as New Dataset,Sample 802 By YargerLab Date Wednesday, July 09 2025
cm-1,A
4000.00,0.0109
3987.00,0.0109
3974.00,0.0108
3961.00,0.0109
3948.00,0.0110
3935.00,0.0109
3922.00,0.0110
3909.00,0.0109
3896.00,0.0108
3883.00,0.0107
3870.00,0.0108
3857.00,0.0108
3844.00,0.0107
3831.00,0.0106
3818.00,0.0104
3805.00,0.0105
3792.00,0.0106
3779.00,0.0105
3766.00,0.0104
3753.00,0.0103
3740.00,0.0101
3727.00,0.0101
3714.00,0.0101
3701.00,0.0100
3688.00,0.0099
3675.00,0.0099
3662.00,0.0100
3649.00,0.0099
3636.00,0.0098
3623.00,0.0098
3610.00,0.0099
3597.00,0.0097
3584.00,0.0098
3571.00,0.0098
3558.00,0.0099
3545.00,0.0101
3532.00,0.0107
3519.00,0.0121
3506.00,0.0110
3493.00,0.0108
3480.00,0.0109
3467.00,0.0111
3454.00,0.0115
3441.00,0.0119
3428.00,0.0123
3415.00,0.0128
3402.00,0.0128
3389.00,0.0116
3376.00,0.0110
3363.00,0.0106
3350.00,0.0104
3337.00,0.0103
3324.00,0.0101
3311.00,0.0101
3298.00,0.0100
3285.00,0.0102
3272.00,0.0102
3259.00,0.0108
3246.00,0.0113
3233.00,0.0116
3220.00,0.0126
3207.00,0.0136
3194.00,0.0148
3181.00,0.0162
3168.00,0.0177
3155.00,0.0192
3142.00,0.0215
3129.00,0.0245
3116.00,0.0282
3103.00,0.0349
3090.00,0.0435
3077.00,0.0557
3064.00,0.0682
3051.00,0.0742
3038.00,0.0717
3025.00,0.0653
3012.00,0.0642
2999.00,0.0622
2986.00,0.0786
2973.00,0.0685
2960.00,0.0650
2947.00,0.0617
2934.00,0.0576
2921.00,0.0554
2908.00,0.0526
2895.00,0.0499
2882.00,0.0492
2869.00,0.0484
2856.00,0.0483
2843.00,0.0470
2830.00,0.0482
2817.00,0.0513
2804.00,0.0546
2791.00,0.0563
2778.00,0.0588
2765.00,0.0558
2752.00,0.0518
2739.00,0.0491
2726.00,0.0480
2713.00,0.0475
2700.00,0.0482
2687.00,0.0499
2674.00,0.0513
2661.00,0.0521
2648.00,0.0532
2635.00,0.0533
2622.00,0.0535
2609.00,0.0529
2596.00,0.0530
2583.00,0.0537
2570.00,0.0532
2557.00,0.0529
2544.00,0.0530
2531.00,0.0548
2518.00,0.0575
2505.00,0.0598
2492.00,0.0595
2479.00,0.0587
2466.00,0.0588
2453.00,0.0579
2440.00,0.0581
2427.00,0.0611
2414.00,0.0649
2401.00,0.0685
2388.00,0.0708
2375.00,0.0690
2362.00,0.0675
2349.00,0.0653
2336.00,0.0635
2323.00,0.0617
2310.00,0.0592
2297.00,0.0581
2284.00,0.0560
2271.00,0.0528
2258.00,0.0500
2245.00,0.0474
2232.00,0.0448
2219.00,0.0426
2206.00,0.0407
2193.00,0.0391
2180.00,0.0358
2167.00,0.0342
2154.00,0.0292
2141.00,0.0278
2128.00,0.0264
2115.00,0.0255
2102.00,0.0237
2089.00,0.0226
2076.00,0.0216
2063.00,0.0199
2050.00,0.0203
2037.00,0.0189
2024.00,0.0172
2011.00,0.0173
1998.00,0.0177
1985.00,0.0187
1972.00,0.0157
1959.00,0.0150
1946.00,0.0148
1933.00,0.0143
1920.00,0.0140
1907.00,0.0135
1894.00,0.0126
1881.00,0.0125
1868.00,0.0120
1855.00,0.0120
1842.00,0.0123
1829.00,0.0120
1816.00,0.0119
1803.00,0.0117
1790.00,0.0118
1777.00,0.0119
1764.00,0.0125
1751.00,0.0126
1738.00,0.0130
1725.00,0.0133
1712.00,0.0143
1699.00,0.0156
1686.00,0.0175
1673.00,0.0198
1660.00,0.0217
1647.00,0.0287
1634.00,0.0657
1621.00,0.1500
1608.00,0.1659
1595.00,0.1254
1582.00,0.1261
1569.00,0.1633
1556.00,0.2077
1543.00,0.1956
1530.00,0.1586
1517.00,0.1229
1504.00,0.0974
1491.00,0.0802
1478.00,0.0932
1465.00,0.0893
1452.00,0.1349
1439.00,0.1361
1426.00,0.1052
1413.00,0.1556
1400.00,0.1826
1387.00,0.2020
1374.00,0.2711
1361.00,0.1903
1348.00,0.1328
1335.00,0.0960
1322.00,0.1002
1309.00,0.0783
1296.00,0.1454
1283.00,0.1336
1270.00,0.0805
1257.00,0.1019
1244.00,0.0722
1231.00,0.0588
1218.00,0.0532
1205.00,0.0452
1192.00,0.0383
1179.00,0.0406
1166.00,0.0693
1153.00,0.0394
1140.00,0.0315
1127.00,0.0285
1114.00,0.0265
1101.00,0.0293
1088.00,0.0661
1075.00,0.0365
1062.00,0.0361
1049.00,0.0548
1036.00,0.1034
1023.00,0.0481
1010.00,0.0311
997.00,0.0335
984.00,0.0626
971.00,0.0308
958.00,0.0294
945.00,0.0641
932.00,0.0328
919.00,0.0567
906.00,0.0504
893.00,0.0383
880.00,0.0417
867.00,0.0487
854.00,0.0882
841.00,0.0975
828.00,0.0749
815.00,0.0480
802.00,0.0695
789.00,0.1121
776.00,0.0572
763.00,0.0351
750.00,0.0281
737.00,0.0242
724.00,0.0243
711.00,0.0328
698.00,0.0614
685.00,0.0615
672.00,0.0709
659.00,0.0774
646.00,0.1463
633.00,0.1283
620.00,0.0580
607.00,0.0337
594.00,0.0268
581.00,0.0313
568.00,0.0320
555.00,0.0231
542.00,0.0239
529.00,0.0253
516.00,0.0276
503.00,0.0294
490.00,0.0327
477.00,0.0406
464.00,0.0857
451.00,0.2317
438.00,0.0970
425.00,0.0621
412.00,0.0654
400.00,0.0903

File: 2025_07_09_L_Proline_MC_Lot_131547_25G_Scan3.csv
Created as New Dataset,Sample 803 By YargerLab Date Wednesday, July 09 2025
cm-1,A
4000.00,0.0097
3987.00,0.0097
3974.00,0.0097
3961.00,0.0097
3948.00,0.0097
3935.00,0.0097
3922.00,0.0097
3909.00,0.0097
3896.00,0.0095
3883.00,0.0095
3870.00,0.0096
3857.00,0.0094
3844.00,0.0095
3831.00,0.0094
3818.00,0.0093
3805.00,0.0093
3792.00,0.0094
3779.00,0.0093
3766.00,0.0093
3753.00,0.0091
3740.00,0.0088
3727.00,0.0089
3714.00,0.0089
3701.00,0.0088
3688.00,0.0087
3675.00,0.0087
3662.00,0.0089
3649.00,0.0086
3636.00,0.0086
3623.00,0.0086
3610.00,0.0086
3597.00,0.0085
3584.00,0.0086
3571.00,0.0087
3558.00,0.0088
3545.00,0.0090
3532.00,0.0096
3519.00,0.0111
3506.00,0.0099
3493.00,0.0097
3480.00,0.0098
3467.00,0.0101
3454.00,0.0106
3441.00,0.0109
3428.00,0.0113
3415.00,0.0118
3402.00,0.0118
3389.00,0.0106
3376.00,0.0099
3363.00,0.0095
3350.00,0.0093
3337.00,0.0091
3324.00,0.0090
3311.00,0.0090
3298.00,0.0090
3285.00,0.0092
3272.00,0.0092
3259.00,0.0098
3246.00,0.0102
3233.00,0.0106
3220.00,0.0116
3207.00,0.0127
3194.00,0.0139
3181.00,0.0153
3168.00,0.0168
3155.00,0.0183
3142.00,0.0206
3129.00,0.0237
3116.00,0.0275
3103.00,0.0342
3090.00,0.0428
3077.00,0.0551
3064.00,0.0675
3051.00,0.0733
3038.00,0.0709
3025.00,0.0644
3012.00,0.0633
2999.00,0.0613
2986.00,0.0777
2973.00,0.0675
2960.00,0.0639
2947.00,0.0606
2934.00,0.0564
2921.00,0.0542
2908.00,0.0514
2895.00,0.0487
2882.00,0.0481
2869.00,0.0472
2856.00,0.0472
2843.00,0.0458
2830.00,0.0471
2817.00,0.0502
2804.00,0.0534
2791.00,0.0552
2778.00,0.0576
2765.00,0.0546
2752.00,0.0506
2739.00,0.0478
2726.00,0.0468
2713.00,0.0463
2700.00,0.0469
2687.00,0.0487
2674.00,0.0501
2661.00,0.0510
2648.00,0.0520
2635.00,0.0522
2622.00,0.0524
2609.00,0.0517
2596.00,0.0520
2583.00,0.0525
2570.00,0.0520
2557.00,0.0518
2544.00,0.0518
2531.00,0.0537
2518.00,0.0564
2505.00,0.0587
2492.00,0.0584
2479.00,0.0576
2466.00,0.0577
2453.00,0.0568
2440.00,0.0568
2427.00,0.0600
2414.00,0.0637
2401.00,0.0673
2388.00,0.0694
2375.00,0.0674
2362.00,0.0657
2349.00,0.0636
2336.00,0.0616
2323.00,0.0600
2310.00,0.0575
2297.00,0.0567
2284.00,0.0545
2271.00,0.0513
2258.00,0.0486
2245.00,0.0459
2232.00,0.0433
2219.00,0.0412
2206.00,0.0394
2193.00,0.0375
2180.00,0.0341
2167.00,0.0328
2154.00,0.0273
2141.00,0.0262
2128.00,0.0247
2115.00,0.0240
2102.00,0.0223
2089.00,0.0210
2076.00,0.0202
2063.00,0.0185
2050.00,0.0187
2037.00,0.0174
2024.00,0.0156
2011.00,0.0157
1998.00,0.0163
1985.00,0.0169
1972.00,0.0142
1959.00,0.0136
1946.00,0.0135
1933.00,0.0129
1920.00,0.0127
1907.00,0.0121
1894.00,0.0113
1881.00,0.0111
1868.00,0.0106
1855.00,0.0107
1842.00,0.0111
1829.00,0.0107
1816.00,0.0106
1803.00,0.0106
1790.00,0.0107
1777.00,0.0108
1764.00,0.0114
1751.00,0.0115
1738.00,0.0120
1725.00,0.0124
1712.00,0.0134
1699.00,0.0148
1686.00,0.0168
1673.00,0.0190
1660.00,0.0210
1647.00,0.0281
1634.00,0.0648
1621.00,0.1482
1608.00,0.1634
1595.00,0.1239
1582.00,0.1248
1569.00,0.1614
1556.00,0.2045
1543.00,0.1934
1530.00,0.1560
1517.00,0.1204
1504.00,0.0950
1491.00,0.0784
1478.00,0.0917
1465.00,0.0878
1452.00,0.1329
1439.00,0.1342
1426.00,0.1037
1413.00,0.1532
1400.00,0.1797
1387.00,0.1983
1374.00,0.2649
1361.00,0.1858
1348.00,0.1292
1335.00,0.0929
1322.00,0.0977
1309.00,0.0758
1296.00,0.1424
1283.00,0.1302
1270.00,0.0776
1257.00,0.0989
1244.00,0.0691
1231.00,0.0560
1218.00,0.0505
1205.00,0.0425
1192.00,0.0357
1179.00,0.0383
1166.00,0.0668
1153.00,0.0368
1140.00,0.0290
1127.00,0.0260
1114.00,0.0241
1101.00,0.0273
1088.00,0.0640
1075.00,0.0341
1062.00,0.0342
1049.00,0.0530
1036.00,0.1013
1023.00,0.0458
1010.00,0.0288
997.00,0.0314
984.00,0.0605
971.00,0.0286
958.00,0.0276
945.00,0.0618
932.00,0.0309
919.00,0.0550
906.00,0.0483
893.00,0.0361
880.00,0.0397
867.00,0.0469
854.00,0.0860
841.00,0.0945
828.00,0.0725
815.00,0.0458
802.00,0.0676
789.00,0.1094
776.00,0.0548
763.00,0.0329
750.00,0.0259
737.00,0.0221
724.00,0.0224
711.00,0.0311
698.00,0.0593
685.00,0.0593
672.00,0.0683
659.00,0.0751
646.00,0.1422
633.00,0.1238
620.00,0.0549
607.00,0.0312
594.00,0.0246
581.00,0.0294
568.00,0.0298
555.00,0.0212
542.00,0.0220
529.00,0.0235
516.00,0.0256
503.00,0.0279
490.00,0.0307
477.00,0.0386
464.00,0.0835
451.00,0.2231
438.00,0.0937
425.00,0.0588
412.00,0.0624
400.00,0.0864