Folder: Data/DSC

Note: README
This is the README file for YargerLab data repository.

File: JLY_CBD_Xtal_KY1_Cooling1.csv
Filename,JLY_CBD_Xtal_KY1
Instrument name,DSC2A-00468 (192.168.1.101)
Operator,JLY
rundate,1/26/2018
proceduresegments,Data Off ; Equilibrate -50.00 °C; Isothermal 1.0 min; Data On ; Ramp 10.00 °C/min to 110.00 °C; Data Off ; Isothermal 1.0 min; Data On ; Ramp 10.00 °C/min to -50.00 °C; Data Off ; Isothermal 1.0 min; Data On ; Ramp 10.00 °C/min to 110.00 °C; Data Off ; Isothermal 1.0 min; Data On ; Ramp 10.00 °C/min to -50.00 °C; Data Off ; Isothermal 1.0 min; Data On ; Ramp 5.00 °C/min to 110.00 °C; Data Off ; Isothermal 1.0 min; Data On ; Ramp 10.00 °C/min to -50.00 °C; Data Off ; Isothermal 1.0 min; Data On ; Ramp 5.00 °C/min to 110.00 °C; Data Off ; Jump 25.00 °C
[step]
Ramp 10 °C/min to -50.00 °C
Time,Temperature,Heat Flow (Normalized)
min,°C,W/g
17.00,110.03,-0.043
17.05,110.02,-0.043
17.11,109.90,-0.029
17.16,109.61,-0.172
17.21,109.19,-0.279
17.27,108.73,-0.336
17.32,108.23,-0.369
17.37,107.72,-0.387
17.43,107.20,-0.395
17.48,106.67,-0.400
17.53,106.14,-0.402
17.59,105.61,-0.403
17.64,105.08,-0.404
17.69,104.55,-0.404
17.75,104.02,-0.405
17.80,103.49,-0.405
17.85,102.96,-0.405
17.91,102.43,-0.405
17.96,101.89,-0.405
18.01,101.36,-0.405
18.07,100.83,-0.404
18.12,100.30,-0.404
18.17,99.77,-0.403
18.23,99.24,-0.403
18.28,98.70,-0.403
18.33,98.17,-0.402
18.39,97.64,-0.402
18.44,97.11,-0.401
18.49,96.57,-0.401
18.55,96.04,-0.400
18.60,95.51,-0.400
18.65,94.98,-0.399
18.71,94.44,-0.399
18.76,93.91,-0.398
18.81,93.38,-0.398
18.87,92.85,-0.397
18.92,92.31,-0.396
18.97,91.78,-0.396
19.03,91.25,-0.395
19.08,90.72,-0.395
19.13,90.18,-0.394
19.19,89.65,-0.394
19.24,89.12,-0.394
19.29,88.59,-0.393
19.35,88.05,-0.392
19.40,87.52,-0.392
19.45,86.99,-0.392
19.51,86.46,-0.391
19.56,85.92,-0.391
19.61,85.39,-0.390
19.67,84.86,-0.390
19.72,84.32,-0.389
19.77,83.79,-0.389
19.83,83.26,-0.389
19.88,82.73,-0.388
19.93,82.19,-0.388
19.99,81.66,-0.387
20.04,81.13,-0.387
20.09,80.59,-0.387
20.15,80.06,-0.386
20.20,79.53,-0.386
20.25,79.00,-0.385
20.31,78.47,-0.385
20.36,77.93,-0.385
20.41,77.40,-0.384
20.47,76.87,-0.384
20.52,76.33,-0.383
20.57,75.80,-0.383
20.63,75.27,-0.382
20.68,74.74,-0.382
20.73,74.20,-0.381
20.79,73.67,-0.381
20.84,73.14,-0.381
20.89,72.60,-0.380
20.95,72.07,-0.380
21.00,71.54,-0.380
21.05,71.01,-0.379
21.11,70.47,-0.379
21.16,69.94,-0.378
21.21,69.41,-0.378
21.27,68.88,-0.377
21.32,68.34,-0.377
21.37,67.81,-0.377
21.43,67.28,-0.376
21.48,66.74,-0.376
21.53,66.21,-0.375
21.59,65.68,-0.375
21.64,65.15,-0.374
21.69,64.61,-0.374
21.75,64.08,-0.373
21.80,63.55,-0.373
21.85,63.02,-0.372
21.91,62.48,-0.372
21.96,61.95,-0.371
22.01,61.42,-0.371
22.07,60.89,-0.370
22.12,60.35,-0.369
22.17,59.82,-0.369
22.23,59.29,-0.368
22.28,58.75,-0.367
22.33,58.22,-0.367
22.39,57.69,-0.367
22.44,57.15,-0.366
22.49,56.62,-0.366
22.55,56.09,-0.365
22.60,55.56,-0.365
22.65,55.03,-0.364
22.71,54.49,-0.364
22.76,53.96,-0.363
22.81,53.43,-0.363
22.87,52.89,-0.362
22.92,52.36,-0.362
22.97,51.83,-0.361
23.03,51.30,-0.361
23.08,50.77,-0.361
23.13,50.23,-0.360
23.19,49.70,-0.360
23.24,49.17,-0.359
23.29,48.63,-0.359
23.35,48.10,-0.359
23.40,47.57,-0.358
23.45,47.04,-0.358
23.51,46.50,-0.358
23.56,45.97,-0.357
23.61,45.44,-0.357
23.67,44.91,-0.356
23.72,44.37,-0.356
23.77,43.84,-0.356
23.83,43.31,-0.355
23.88,42.78,-0.355
23.93,42.24,-0.355
23.99,41.71,-0.354
24.04,41.18,-0.354
24.09,40.65,-0.354
24.15,40.11,-0.353
24.20,39.58,-0.353
24.25,39.05,-0.352
24.31,38.52,-0.352
24.36,37.98,-0.352
24.41,37.45,-0.351
24.47,36.92,-0.351
24.52,36.38,-0.351
24.57,35.85,-0.350
24.63,35.32,-0.350
24.68,34.79,-0.349
24.73,34.25,-0.349
24.79,33.72,-0.349
24.84,33.19,-0.348
24.89,32.66,-0.348
24.95,32.12,-0.348
25.00,31.59,-0.347
25.05,31.06,-0.347
25.11,30.53,-0.347
25.16,29.99,-0.346
25.21,29.46,-0.346
25.27,28.93,-0.345
25.32,28.40,-0.345
25.37,27.86,-0.345
25.43,27.33,-0.344
25.48,26.80,-0.344
25.53,26.27,-0.343
25.59,25.74,-0.342
25.64,25.20,-0.342
25.69,24.67,-0.341
25.75,24.14,-0.340
25.80,23.61,-0.340
25.85,23.07,-0.339
25.91,22.54,-0.339
25.96,22.01,-0.338
26.01,21.48,-0.338
26.07,20.94,-0.337
26.12,20.41,-0.336
26.17,19.88,-0.336
26.23,19.35,-0.335
26.28,18.81,-0.335
26.33,18.28,-0.334
26.39,17.75,-0.334
26.44,17.22,-0.333
26.49,16.69,-0.332
26.55,16.15,-0.332
26.60,15.62,-0.331
26.65,15.09,-0.331
26.71,14.56,-0.330
26.76,14.02,-0.329
26.81,13.49,-0.329
26.87,12.96,-0.328
26.92,12.43,-0.328
26.97,11.89,-0.328
27.03,11.36,-0.327
27.08,10.83,-0.327
27.13,10.30,-0.326
27.19,9.76,-0.326
27.24,9.23,-0.325
27.29,8.70,-0.325
27.35,8.16,-0.324
27.40,7.63,-0.324
27.45,7.10,-0.324
27.51,6.56,-0.324
27.56,6.03,-0.323
27.61,5.50,-0.322
27.67,4.96,-0.322
27.72,4.43,-0.322
27.77,3.89,-0.321
27.83,3.36,-0.321
27.88,2.83,-0.320
27.93,2.29,-0.320
27.99,1.76,-0.319
28.04,1.23,-0.319
28.09,0.69,-0.319
28.15,0.16,-0.318
28.20,-0.37,-0.318
28.25,-0.91,-0.317
28.31,-1.44,-0.317
28.36,-1.98,-0.316
28.41,-2.51,-0.316
28.47,-3.04,-0.316
28.52,-3.58,-0.315
28.57,-4.11,-0.314
28.63,-4.64,-0.314
28.68,-5.18,-0.313
28.73,-5.71,-0.313
28.79,-6.24,-0.312
28.84,-6.78,-0.312
28.89,-7.31,-0.311
28.95,-7.84,-0.310
29.00,-8.38,-0.310
29.05,-8.91,-0.309
29.11,-9.44,-0.308
29.16,-9.98,-0.306
29.21,-10.51,-0.305
29.27,-11.04,-0.304
29.32,-11.58,-0.302
29.37,-12.11,-0.301
29.43,-12.65,-0.298
29.48,-13.18,-0.296
29.53,-13.71,-0.293
29.59,-14.25,-0.289
29.64,-14.78,-0.287
29.69,-15.31,-0.283
29.75,-15.85,-0.280
29.80,-16.38,-0.277
29.85,-16.91,-0.274
29.91,-17.45,-0.270
29.96,-17.98,-0.268
30.01,-18.52,-0.264
30.07,-19.05,-0.262
30.12,-19.58,-0.259
30.17,-20.12,-0.257
30.23,-20.65,-0.254
30.28,-21.19,-0.251
30.33,-21.72,-0.249
30.39,-22.25,-0.246
30.44,-22.79,-0.244
30.49,-23.32,-0.242
30.55,-23.85,-0.240
30.60,-24.39,-0.238
30.65,-24.92,-0.236
30.71,-25.45,-0.234
30.76,-25.99,-0.232
30.81,-26.52,-0.231
30.87,-27.05,-0.230
30.92,-27.59,-0.228
30.97,-28.12,-0.227
31.03,-28.65,-0.226
31.08,-29.19,-0.224
31.13,-29.72,-0.223
31.19,-30.25,-0.222
31.24,-30.79,-0.221
31.29,-31.32,-0.220
31.35,-31.85,-0.218
31.40,-32.39,-0.217
31.45,-32.92,-0.216
31.51,-33.45,-0.215
31.56,-33.98,-0.214
31.61,-34.52,-0.213
31.67,-35.05,-0.212
31.72,-35.58,-0.211
31.77,-36.12,-0.210
31.83,-36.65,-0.209
31.88,-37.18,-0.208
31.93,-37.72,-0.207
31.99,-38.25,-0.206
32.04,-38.78,-0.205
32.09,-39.31,-0.204
32.15,-39.85,-0.203
32.20,-40.38,-0.202
32.25,-40.91,-0.201
32.31,-41.45,-0.201
32.36,-41.98,-0.200
32.41,-42.51,-0.198
32.47,-43.04,-0.198
32.52,-43.58,-0.197
32.57,-44.11,-0.196
32.63,-44.65,-0.195
32.68,-45.18,-0.195
32.73,-45.71,-0.194
32.79,-46.24,-0.193
32.84,-46.78,-0.192
32.89,-47.31,-0.191
32.95,-47.84,
33.00,,

File: JLY_CBD_Xtal_KY1_Cooling2.csv
Filename,JLY_CBD_Xtal_KY1
Instrument name,DSC2A-00468 (192.168.1.101)
Operator,JLY
rundate,1/26/2018
proceduresegments,Data Off ; Equilibrate -50.00 °C; Isothermal 1.0 min; Data On ; Ramp 10.00 °C/min to 110.00 °C; Data Off ; Isothermal 1.0 min; Data On ; Ramp 10.00 °C/min to -50.00 °C; Data Off ; Isothermal 1.0 min; Data On ; Ramp 10.00 °C/min to 110.00 °C; Data Off ; Isothermal 1.0 min; Data On ; Ramp 10.00 °C/min to -50.00 °C; Data Off ; Isothermal 1.0 min; Data On ; Ramp 5.00 °C/min to 110.00 °C; Data Off ; Isothermal 1.0 min; Data On ; Ramp 10.00 °C/min to -50.00 °C; Data Off ; Isothermal 1.0 min; Data On ; Ramp 5.00 °C/min to 110.00 °C; Data Off ; Jump 25.00 °C
[step]
Ramp 10 °C/min to -50.00 °C
Time,Temperature,Heat Flow (Normalized)
min,°C,W/g
51.00,110.03,-0.043
51.05,110.02,-0.043
51.11,109.90,-0.039
51.16,109.61,-0.178
51.21,109.20,-0.284
51.27,108.73,-0.337
51.32,108.23,-0.371
51.37,107.72,-0.389
51.43,107.20,-0.397
51.48,106.67,-0.401
51.53,106.14,-0.402
51.59,105.61,-0.403
51.64,105.08,-0.404
51.69,104.55,-0.405
51.75,104.02,-0.405
51.80,103.49,-0.405
51.85,102.96,-0.405
51.91,102.43,-0.405
51.96,101.89,-0.405
52.01,101.36,-0.405
52.07,100.83,-0.404
52.12,100.30,-0.404
52.17,99.77,-0.403
52.23,99.23,-0.403
52.28,98.70,-0.403
52.33,98.17,-0.402
52.39,97.64,-0.402
52.44,97.11,-0.401
52.49,96.57,-0.401
52.55,96.04,-0.400
52.60,95.51,-0.399
52.65,94.98,-0.399
52.71,94.44,-0.398
52.76,93.91,-0.398
52.81,93.38,-0.397
52.87,92.85,-0.397
52.92,92.31,-0.396
52.97,91.78,-0.396
53.03,91.25,-0.395
53.08,90.72,-0.395
53.13,90.18,-0.394
53.19,89.65,-0.394
53.24,89.12,-0.393
53.29,88.59,-0.393
53.35,88.05,-0.392
53.40,87.52,-0.392
53.45,86.99,-0.391
53.51,86.45,-0.391
53.56,85.92,-0.391
53.61,85.39,-0.390
53.67,84.86,-0.390
53.72,84.32,-0.389
53.77,83.79,-0.389
53.83,83.26,-0.388
53.88,82.73,-0.388
53.93,82.19,-0.388
53.99,81.66,-0.387
54.04,81.13,-0.387
54.09,80.59,-0.386
54.15,80.06,-0.386
54.20,79.53,-0.386
54.25,79.00,-0.385
54.31,78.46,-0.385
54.36,77.93,-0.384
54.41,77.40,-0.384
54.47,76.87,-0.383
54.52,76.33,-0.383
54.57,75.80,-0.383
54.63,75.27,-0.382
54.68,74.74,-0.382
54.73,74.20,-0.381
54.79,73.67,-0.381
54.84,73.14,-0.381
54.89,72.61,-0.380
54.95,72.07,-0.380
55.00,71.54,-0.380
55.05,71.01,-0.379
55.11,70.47,-0.379
55.16,69.94,-0.378
55.21,69.41,-0.378
55.27,68.88,-0.377
55.32,68.34,-0.377
55.37,67.81,-0.377
55.43,67.28,-0.376
55.48,66.74,-0.375
55.53,66.21,-0.375
55.59,65.68,-0.374
55.64,65.15,-0.374
55.69,64.61,-0.373
55.75,64.08,-0.373
55.80,63.55,-0.372
55.85,63.02,-0.372
55.91,62.48,-0.371
55.96,61.95,-0.371
56.01,61.42,-0.370
56.07,60.88,-0.370
56.12,60.35,-0.369
56.17,59.82,-0.369
56.23,59.29,-0.368
56.28,58.75,-0.368
56.33,58.22,-0.367
56.39,57.69,-0.367
56.44,57.16,-0.366
56.49,56.62,-0.366
56.55,56.09,-0.365
56.60,55.56,-0.365
56.65,55.03,-0.364
56.71,54.49,-0.364
56.76,53.96,-0.363
56.81,53.43,-0.363
56.87,52.89,-0.362
56.92,52.36,-0.362
56.97,51.83,-0.361
57.03,51.30,-0.361
57.08,50.77,-0.361
57.13,50.23,-0.360
57.19,49.70,-0.360
57.24,49.17,-0.359
57.29,48.63,-0.359
57.35,48.10,-0.358
57.40,47.57,-0.358
57.45,47.04,-0.358
57.51,46.50,-0.357
57.56,45.97,-0.357
57.61,45.44,-0.356
57.67,44.91,-0.356
57.72,44.37,-0.356
57.77,43.84,-0.355
57.83,43.31,-0.355
57.88,42.78,-0.355
57.93,42.24,-0.354
57.99,41.71,-0.354
58.04,41.18,-0.353
58.09,40.64,-0.353
58.15,40.11,-0.353
58.20,39.58,-0.352
58.25,39.05,-0.352
58.31,38.52,-0.351
58.36,37.98,-0.351
58.41,37.45,-0.351
58.47,36.92,-0.350
58.52,36.39,-0.350
58.57,35.85,-0.350
58.63,35.32,-0.349
58.68,34.79,-0.349
58.73,34.25,-0.349
58.79,33.72,-0.349
58.84,33.19,-0.348
58.89,32.66,-0.348
58.95,32.12,-0.347
59.00,31.59,-0.347
59.05,31.06,-0.346
59.11,30.53,-0.346
59.16,29.99,-0.346
59.21,29.46,-0.345
59.27,28.93,-0.345
59.32,28.40,-0.344
59.37,27.86,-0.344
59.43,27.33,-0.342
59.48,26.80,-0.342
59.53,26.27,-0.342
59.59,25.74,-0.341
59.64,25.20,-0.341
59.69,24.67,-0.340
59.75,24.14,-0.340
59.80,23.60,-0.339
59.85,23.07,-0.338
59.91,22.54,-0.338
59.96,22.01,-0.337
60.01,21.48,-0.337
60.07,20.94,-0.336
60.12,20.41,-0.336
60.17,19.88,-0.335
60.23,19.35,-0.334
60.28,18.81,-0.334
60.33,18.28,-0.333
60.39,17.75,-0.333
60.44,17.22,-0.332
60.49,16.69,-0.332
60.55,16.15,-0.331
60.60,15.62,-0.330
60.65,15.09,-0.330
60.71,14.56,-0.329
60.76,14.03,-0.329
60.81,13.49,-0.328
60.87,12.96,-0.328
60.92,12.43,-0.327
60.97,11.90,-0.327
61.03,11.36,-0.326
61.08,10.83,-0.326
61.13,10.30,-0.325
61.19,9.76,-0.325
61.24,9.23,-0.324
61.29,8.70,-0.324
61.35,8.16,-0.324
61.40,7.63,-0.323
61.45,7.10,-0.323
61.51,6.56,-0.322
61.56,6.03,-0.322
61.61,5.50,-0.321
61.67,4.96,-0.321
61.72,4.43,-0.321
61.77,3.89,-0.320
61.83,3.36,-0.320
61.88,2.83,-0.319
61.93,2.29,-0.319
61.99,1.76,-0.319
62.04,1.23,-0.318
62.09,0.69,-0.318
62.15,0.16,-0.317
62.20,-0.37,-0.317
62.25,-0.91,-0.317
62.31,-1.44,-0.316
62.36,-1.98,-0.316
62.41,-2.51,-0.315
62.47,-3.04,-0.315
62.52,-3.58,-0.314
62.57,-4.11,-0.314
62.63,-4.64,-0.313
62.68,-5.17,-0.313
62.73,-5.71,-0.312
62.79,-6.24,-0.311
62.84,-6.78,-0.311
62.89,-7.31,-0.310
62.95,-7.84,-0.310
63.00,-8.38,-0.308
63.05,-8.91,-0.307
63.11,-9.44,-0.307
63.16,-9.98,-0.306
63.21,-10.51,-0.304
63.27,-11.05,-0.303
63.32,-11.58,-0.301
63.37,-12.11,-0.300
63.43,-12.64,-0.297
63.48,-13.18,-0.295
63.53,-13.71,-0.293
63.59,-14.25,-0.290
63.64,-14.78,-0.286
63.69,-15.31,-0.284
63.75,-15.85,-0.281
63.80,-16.38,-0.278
63.85,-16.92,-0.275
63.91,-17.45,-0.269
63.96,-17.98,-0.267
64.01,-18.52,-0.263
64.07,-19.05,-0.261
64.12,-19.58,-0.259
64.17,-20.12,-0.256
64.23,-20.65,-0.253
64.28,-21.18,-0.251
64.33,-21.72,-0.248
64.39,-22.25,-0.246
64.44,-22.78,-0.244
64.49,-23.32,-0.242
64.55,-23.85,-0.239
64.60,-24.38,-0.237
64.65,-24.92,-0.235
64.71,-25.45,-0.233
64.76,-25.99,-0.232
64.81,-26.52,-0.230
64.87,-27.05,-0.228
64.92,-27.59,-0.227
64.97,-28.12,-0.225
65.03,-28.65,-0.224
65.08,-29.18,-0.222
65.13,-29.72,-0.221
65.19,-30.25,-0.220
65.24,-30.79,-0.219
65.29,-31.32,-0.218
65.35,-31.85,-0.217
65.40,-32.38,-0.216
65.45,-32.92,-0.215
65.51,-33.45,-0.214
65.56,-33.98,-0.212
65.61,-34.52,-0.212
65.67,-35.05,-0.211
65.72,-35.58,-0.210
65.77,-36.12,-0.209
65.83,-36.65,-0.208
65.88,-37.18,-0.207
65.93,-37.71,-0.206
65.99,-38.25,-0.205
66.04,-38.78,-0.204
66.09,-39.31,-0.203
66.15,-39.85,-0.202
66.20,-40.38,-0.201
66.25,-40.91,-0.201
66.31,-41.45,-0.200
66.36,-41.98,-0.199
66.41,-42.51,-0.198
66.47,-43.04,-0.197
66.52,-43.58,-0.196
66.57,-44.11,-0.195
66.63,-44.64,-0.194
66.68,-45.18,-0.193
66.73,-45.71,-0.192
66.79,-46.25,-0.191
66.84,-46.78,-0.189
66.89,-47.31,-0.188
66.95,-47.84,
67.00,,

File: JLY_CBD_Xtal_KY1_Heating1.csv
Filename,JLY_CBD_Xtal_KY1
Instrument name,DSC2A-00468 (192.168.1.101)
Operator,JLY
rundate,1/26/2018
proceduresegments,Data Off ; Equilibrate -50.00 °C; Isothermal 1.0 min; Data On ; Ramp 10.00 °C/min to 110.00 °C; Data Off ; Isothermal 1.0 min; Data On ; Ramp 10.00 °C/min to -50.00 °C; Data Off ; Isothermal 1.0 min; Data On ; Ramp 10.00 °C/min to 110.00 °C; Data Off ; Isothermal 1.0 min; Data On ; Ramp 10.00 °C/min to -50.00 °C; Data Off ; Isothermal 1.0 min; Data On ; Ramp 5.00 °C/min to 110.00 °C; Data Off ; Isothermal 1.0 min; Data On ; Ramp 10.00 °C/min to -50.00 °C; Data Off ; Isothermal 1.0 min; Data On ; Ramp 5.00 °C/min to 110.00 °C; Data Off ; Jump 25.00 °C
[step]
Ramp 10 °C/min to 110.00 °C
Time,Temperature,Heat Flow (Normalized)
min,°C,W/g
0.00,-49.92,-0.013
0.05,-49.91,-0.013
0.11,-49.83,-0.051
0.16,-49.59,-0.059
0.21,-49.22,-0.012
0.27,-48.77,0.044
0.32,-48.29,0.080
0.37,-47.79,0.107
0.43,-47.28,0.125
0.48,-46.76,0.135
0.53,-46.24,0.142
0.59,-45.71,0.148
0.64,-45.18,0.150
0.69,-44.65,0.151
0.75,-44.13,0.153
0.80,-43.60,0.154
0.85,-43.06,0.155
0.91,-42.53,0.157
0.96,-42.00,0.157
1.01,-41.47,0.158
1.07,-40.94,0.164
1.12,-40.41,0.166
1.17,-39.88,0.166
1.23,-39.35,0.165
1.28,-38.81,0.165
1.33,-38.28,0.164
1.39,-37.75,0.164
1.44,-37.21,0.164
1.49,-36.68,0.164
1.55,-36.15,0.164
1.60,-35.61,0.164
1.65,-35.08,0.164
1.71,-34.55,0.164
1.76,-34.01,0.164
1.81,-33.48,0.164
1.87,-32.95,0.164
1.92,-32.41,0.164
1.97,-31.88,0.164
2.03,-31.35,0.165
2.08,-30.81,0.165
2.13,-30.28,0.165
2.19,-29.75,0.165
2.24,-29.21,0.165
2.29,-28.68,0.166
2.35,-28.15,0.166
2.40,-27.61,0.166
2.45,-27.08,0.166
2.51,-26.54,0.167
2.56,-26.01,0.167
2.61,-25.48,0.167
2.67,-24.94,0.167
2.72,-24.41,0.167
2.77,-23.87,0.168
2.83,-23.34,0.168
2.88,-22.81,0.168
2.93,-22.27,0.168
2.99,-21.74,0.168
3.04,-21.21,0.168
3.09,-20.67,0.168
3.15,-20.14,0.169
3.20,-19.60,0.169
3.25,-19.07,0.169
3.31,-18.54,0.169
3.36,-18.00,0.170
3.41,-17.47,0.170
3.47,-16.93,0.170
3.52,-16.40,0.170
3.57,-15.87,0.170
3.63,-15.33,0.171
3.68,-14.80,0.171
3.73,-14.27,0.171
3.79,-13.73,0.171
3.84,-13.20,0.172
3.89,-12.66,0.172
3.95,-12.13,0.172
4.00,-11.60,0.172
4.05,-11.06,0.172
4.11,-10.53,0.172
4.16,-9.99,0.173
4.21,-9.46,0.198
4.27,-8.93,0.194
4.32,-8.40,0.190
4.37,-7.86,0.187
4.43,-7.33,0.185
4.48,-6.79,0.183
4.53,-6.26,0.182
4.59,-5.73,0.180
4.64,-5.19,0.179
4.69,-4.66,0.179
4.75,-4.12,0.178
4.80,-3.59,0.178
4.85,-3.06,0.178
4.91,-2.52,0.178
4.96,-1.99,0.178
5.01,-1.45,0.178
5.07,-0.92,0.178
5.12,-0.39,0.178
5.17,0.15,0.178
5.23,0.68,0.179
5.28,1.22,0.179
5.33,1.75,0.179
5.39,2.28,0.179
5.44,2.82,0.180
5.49,3.35,0.180
5.55,3.88,0.180
5.60,4.42,0.180
5.65,4.95,0.181
5.71,5.48,0.181
5.76,6.02,0.181
5.81,6.55,0.181
5.87,7.09,0.182
5.92,7.62,0.182
5.97,8.16,0.182
6.03,8.69,0.183
6.08,9.22,0.183
6.13,9.76,0.183
6.19,10.29,0.183
6.24,10.82,0.184
6.29,11.36,0.184
6.35,11.89,0.184
6.40,12.43,0.185
6.45,12.96,0.185
6.51,13.49,0.185
6.56,14.03,0.186
6.61,14.56,0.186
6.67,15.09,0.186
6.72,15.63,0.186
6.77,16.16,0.187
6.83,16.69,0.187
6.88,17.23,0.188
6.93,17.76,0.188
6.99,18.30,0.188
7.04,18.83,0.189
7.09,19.36,0.189
7.15,19.90,0.189
7.20,20.43,0.190
7.25,20.96,0.190
7.31,21.50,0.191
7.36,22.03,0.191
7.41,22.57,0.192
7.47,23.10,0.192
7.52,23.63,0.193
7.57,24.17,0.193
7.63,24.70,0.194
7.68,25.23,0.194
7.73,25.77,0.195
7.79,26.30,0.195
7.84,26.84,0.195
7.89,27.37,0.196
7.95,27.90,0.196
8.00,28.44,0.197
8.05,28.97,0.197
8.11,29.50,0.198
8.16,30.04,0.198
8.21,30.57,0.199
8.27,31.11,0.199
8.32,31.64,0.199
8.37,32.17,0.200
8.43,32.71,0.200
8.48,33.24,0.201
8.53,33.77,0.201
8.59,34.31,0.201
8.64,34.84,0.202
8.69,35.37,0.202
8.75,35.91,0.202
8.80,36.44,0.203
8.85,36.98,0.203
8.91,37.51,0.204
8.96,38.04,0.204
9.01,38.58,0.204
9.07,39.11,0.205
9.12,39.64,0.205
9.17,40.18,0.205
9.23,40.71,0.206
9.28,41.25,0.206
9.33,41.78,0.207
9.39,42.31,0.207
9.44,42.85,0.208
9.49,43.38,0.208
9.55,43.92,0.208
9.60,44.45,0.209
9.65,44.98,0.209
9.71,45.52,0.210
9.76,46.05,0.210
9.81,46.58,0.210
9.87,47.12,0.211
9.92,47.65,0.211
9.97,48.18,0.212
10.03,48.72,0.212
10.08,49.25,0.213
10.13,49.78,0.213
10.19,50.32,0.214
10.24,50.85,0.214
10.29,51.39,0.215
10.35,51.92,0.215
10.40,52.45,0.216
10.45,52.99,0.217
10.51,53.52,0.218
10.56,54.05,0.218
10.61,54.59,0.219
10.67,55.12,0.220
10.72,55.66,0.220
10.77,56.19,0.221
10.83,56.72,0.223
10.88,57.26,0.223
10.93,57.79,0.225
10.99,58.32,0.226
11.04,58.86,0.227
11.09,59.39,0.228
11.15,59.92,0.229
11.20,60.46,0.231
11.25,60.99,0.232
11.31,61.52,0.234
11.36,62.06,0.237
11.41,62.59,0.241
11.47,63.12,0.244
11.52,63.66,0.251
11.57,64.19,0.260
11.63,64.72,0.275
11.68,65.25,0.294
11.73,65.78,0.324
11.79,66.31,0.375
11.84,66.83,0.462
11.89,67.34,0.596
11.95,67.84,0.823
12.00,68.33,1.100
12.05,68.80,1.413
12.11,69.27,1.686
12.16,69.75,1.905
12.21,70.22,2.241
12.27,70.70,2.427
12.32,71.18,2.581
12.37,71.67,2.738
12.43,72.19,2.670
12.48,72.76,2.230
12.53,73.37,1.762
12.59,74.04,0.905
12.64,74.70,0.573
12.69,75.30,0.449
12.75,75.88,0.382
12.80,76.43,0.346
12.85,76.98,0.329
12.91,77.52,0.319
12.96,78.05,0.315
13.01,78.59,0.312
13.07,79.13,0.311
13.12,79.66,0.310
13.17,80.19,0.309
13.23,80.73,0.308
13.28,81.26,0.308
13.33,81.79,0.307
13.39,82.33,0.307
13.44,82.86,0.307
13.49,83.40,0.307
13.55,83.93,0.307
13.60,84.46,0.307
13.65,85.00,0.307
13.71,85.53,0.307
13.76,86.06,0.307
13.81,86.60,0.307
13.87,87.13,0.308
13.92,87.67,0.308
13.97,88.20,0.308
14.03,88.73,0.308
14.08,89.27,0.308
14.13,89.80,0.309
14.19,90.33,0.309
14.24,90.87,0.309
14.29,91.40,0.309
14.35,91.94,0.310
14.40,92.47,0.310
14.45,93.00,0.310
14.51,93.54,0.310
14.56,94.07,0.310
14.61,94.60,0.311
14.67,95.14,0.311
14.72,95.67,0.311
14.77,96.20,0.311
14.83,96.74,0.311
14.88,97.27,0.311
14.93,97.81,0.312
14.99,98.34,0.312
15.04,98.87,0.312
15.09,99.41,0.313
15.15,99.94,0.313
15.20,100.47,0.313
15.25,101.01,0.313
15.31,101.54,0.314
15.36,102.08,0.314
15.41,102.61,0.314
15.47,103.14,0.314
15.52,103.68,0.314
15.57,104.21,0.315
15.63,104.74,0.315
15.68,105.28,0.315
15.73,105.81,0.315
15.79,106.34,0.316
15.84,106.88,0.316
15.89,107.41,0.316
15.95,107.94,
16.00,,

File: JLY_CBD_Xtal_KY1_Heating2.csv
Filename,JLY_CBD_Xtal_KY1
Instrument name,DSC2A-00468 (192.168.1.101)
Operator,JLY
rundate,1/26/2018
proceduresegments,Data Off ; Equilibrate -50.00 °C; Isothermal 1.0 min; Data On ; Ramp 10.00 °C/min to 110.00 °C; Data Off ; Isothermal 1.0 min; Data On ; Ramp 10.00 °C/min to -50.00 °C; Data Off ; Isothermal 1.0 min; Data On ; Ramp 10.00 °C/min to 110.00 °C; Data Off ; Isothermal 1.0 min; Data On ; Ramp 10.00 °C/min to -50.00 °C; Data Off ; Isothermal 1.0 min; Data On ; Ramp 5.00 °C/min to 110.00 °C; Data Off ; Isothermal 1.0 min; Data On ; Ramp 10.00 °C/min to -50.00 °C; Data Off ; Isothermal 1.0 min; Data On ; Ramp 5.00 °C/min to 110.00 °C; Data Off ; Jump 25.00 °C
[step]
Ramp 10 °C/min to 110.00 °C
Time,Temperature,Heat Flow (Normalized)
min,°C,W/g
34.00,-49.91,-0.017
34.05,-49.90,-0.017
34.11,-49.82,-0.023
34.16,-49.59,-0.006
34.21,-49.22,0.054
34.27,-48.78,0.094
34.32,-48.30,0.120
34.37,-47.79,0.132
34.43,-47.28,0.140
34.48,-46.75,0.144
34.53,-46.23,0.147
34.59,-45.70,0.149
34.64,-45.17,0.150
34.69,-44.64,0.151
34.75,-44.11,0.152
34.80,-43.58,0.153
34.85,-43.05,0.154
34.91,-42.52,0.155
34.96,-41.99,0.156
35.01,-41.46,0.156
35.07,-40.93,0.157
35.12,-40.40,0.157
35.17,-39.86,0.158
35.23,-39.33,0.158
35.28,-38.80,0.159
35.33,-38.27,0.159
35.39,-37.74,0.160
35.44,-37.20,0.160
35.49,-36.67,0.160
35.55,-36.14,0.161
35.60,-35.60,0.161
35.65,-35.07,0.161
35.71,-34.54,0.162
35.76,-34.00,0.162
35.81,-33.47,0.163
35.87,-32.94,0.163
35.92,-32.40,0.164
35.97,-31.87,0.164
36.03,-31.34,0.165
36.08,-30.80,0.165
36.13,-30.27,0.165
36.19,-29.74,0.166
36.24,-29.20,0.166
36.29,-28.67,0.167
36.35,-28.13,0.167
36.40,-27.60,0.168
36.45,-27.07,0.169
36.51,-26.53,0.169
36.56,-26.00,0.170
36.61,-25.47,0.170
36.67,-24.93,0.171
36.72,-24.40,0.172
36.77,-23.87,0.172
36.83,-23.33,0.173
36.88,-22.80,0.173
36.93,-22.26,0.174
36.99,-21.73,0.175
37.04,-21.20,0.176
37.09,-20.66,0.177
37.15,-20.13,0.179
37.20,-19.60,0.180
37.25,-19.06,0.182
37.31,-18.53,0.183
37.36,-18.00,0.185
37.41,-17.46,0.187
37.47,-16.93,0.191
37.52,-16.40,0.194
37.57,-15.86,0.198
37.63,-15.33,0.204
37.68,-14.80,0.210
37.73,-14.27,0.218
37.79,-13.73,0.228
37.84,-13.20,0.239
37.89,-12.67,0.248
37.95,-12.14,0.261
38.00,-11.61,0.270
38.05,-11.08,0.277
38.11,-10.54,0.282
38.16,-10.01,0.283
38.21,-9.48,0.284
38.27,-8.94,0.281
38.32,-8.41,0.275
38.37,-7.87,0.271
38.43,-7.34,0.267
38.48,-6.80,0.265
38.53,-6.27,0.263
38.59,-5.73,0.262
38.64,-5.20,0.261
38.69,-4.67,0.260
38.75,-4.13,0.259
38.80,-3.60,0.259
38.85,-3.06,0.258
38.91,-2.53,0.258
38.96,-2.00,0.258
39.01,-1.46,0.258
39.07,-0.93,0.258
39.12,-0.39,0.258
39.17,0.14,0.258
39.23,0.67,0.258
39.28,1.21,0.259
39.33,1.74,0.259
39.39,2.27,0.259
39.44,2.81,0.259
39.49,3.34,0.259
39.55,3.88,0.260
39.60,4.41,0.260
39.65,4.94,0.260
39.71,5.48,0.261
39.76,6.01,0.261
39.81,6.55,0.261
39.87,7.08,0.261
39.92,7.61,0.262
39.97,8.15,0.262
40.03,8.68,0.262
40.08,9.21,0.263
40.13,9.75,0.263
40.19,10.28,0.263
40.24,10.82,0.264
40.29,11.35,0.264
40.35,11.88,0.264
40.40,12.42,0.264
40.45,12.95,0.265
40.51,13.48,0.265
40.56,14.02,0.265
40.61,14.55,0.266
40.67,15.09,0.266
40.72,15.62,0.266
40.77,16.15,0.267
40.83,16.69,0.267
40.88,17.22,0.267
40.93,17.75,0.268
40.99,18.29,0.268
41.04,18.82,0.269
41.09,19.36,0.269
41.15,19.89,0.269
41.20,20.42,0.270
41.25,20.96,0.270
41.31,21.49,0.271
41.36,22.02,0.271
41.41,22.56,0.271
41.47,23.09,0.272
41.52,23.63,0.272
41.57,24.16,0.273
41.63,24.69,0.273
41.68,25.23,0.274
41.73,25.76,0.274
41.79,26.29,0.274
41.84,26.83,0.275
41.89,27.36,0.275
41.95,27.90,0.276
42.00,28.43,0.276
42.05,28.96,0.277
42.11,29.50,0.277
42.16,30.03,0.277
42.21,30.56,0.278
42.27,31.10,0.278
42.32,31.63,0.278
42.37,32.17,0.279
42.43,32.70,0.279
42.48,33.23,0.279
42.53,33.77,0.279
42.59,34.30,0.280
42.64,34.83,0.280
42.69,35.37,0.280
42.75,35.90,0.281
42.80,36.44,0.281
42.85,36.97,0.281
42.91,37.50,0.282
42.96,38.04,0.282
43.01,38.57,0.282
43.07,39.10,0.282
43.12,39.64,0.283
43.17,40.17,0.283
43.23,40.71,0.283
43.28,41.24,0.284
43.33,41.77,0.284
43.39,42.31,0.284
43.44,42.84,0.284
43.49,43.37,0.284
43.55,43.91,0.285
43.60,44.44,0.285
43.65,44.98,0.285
43.71,45.51,0.285
43.76,46.04,0.286
43.81,46.58,0.286
43.87,47.11,0.286
43.92,47.64,0.286
43.97,48.18,0.287
44.03,48.71,0.287
44.08,49.25,0.287
44.13,49.78,0.288
44.19,50.31,0.288
44.24,50.85,0.288
44.29,51.38,0.288
44.35,51.92,0.289
44.40,52.45,0.289
44.45,52.98,0.289
44.51,53.51,0.290
44.56,54.05,0.290
44.61,54.58,0.290
44.67,55.12,0.291
44.72,55.65,0.291
44.77,56.18,0.291
44.83,56.72,0.292
44.88,57.25,0.292
44.93,57.79,0.292
44.99,58.32,0.293
45.04,58.85,0.293
45.09,59.39,0.293
45.15,59.92,0.294
45.20,60.46,0.294
45.25,60.99,0.294
45.31,61.52,0.295
45.36,62.06,0.295
45.41,62.59,0.295
45.47,63.12,0.296
45.52,63.66,0.296
45.57,64.19,0.296
45.63,64.72,0.297
45.68,65.26,0.297
45.73,65.79,0.298
45.79,66.33,0.298
45.84,66.86,0.298
45.89,67.39,0.299
45.95,67.93,0.299
46.00,68.46,0.299
46.05,69.00,0.300
46.11,69.53,0.300
46.16,70.06,0.301
46.21,70.60,0.301
46.27,71.13,0.301
46.32,71.66,0.302
46.37,72.20,0.302
46.43,72.73,0.302
46.48,73.26,0.302
46.53,73.80,0.303
46.59,74.33,0.303
46.64,74.87,0.303
46.69,75.40,0.303
46.75,75.93,0.304
46.80,76.47,0.304
46.85,77.00,0.304
46.91,77.53,0.305
46.96,78.07,0.305
47.01,78.60,0.305
47.07,79.14,0.305
47.12,79.67,0.306
47.17,80.20,0.306
47.23,80.74,0.306
47.28,81.27,0.306
47.33,81.81,0.307
47.39,82.34,0.307
47.44,82.87,0.307
47.49,83.41,0.307
47.55,83.94,0.308
47.60,84.47,0.308
47.65,85.01,0.308
47.71,85.54,0.308
47.76,86.07,0.308
47.81,86.61,0.309
47.87,87.14,0.309
47.92,87.67,0.309
47.97,88.21,0.309
48.03,88.74,0.309
48.08,89.28,0.310
48.13,89.81,0.310
48.19,90.34,0.310
48.24,90.88,0.310
48.29,91.41,0.310
48.35,91.95,0.311
48.40,92.48,0.311
48.45,93.01,0.311
48.51,93.55,0.311
48.56,94.08,0.311
48.61,94.61,0.312
48.67,95.15,0.312
48.72,95.68,0.312
48.77,96.21,0.312
48.83,96.75,0.312
48.88,97.28,0.312
48.93,97.82,0.313
48.99,98.35,0.313
49.04,98.88,0.313
49.09,99.42,0.313
49.15,99.95,0.314
49.20,100.49,0.314
49.25,101.02,0.314
49.31,101.55,0.315
49.36,102.09,0.315
49.41,102.62,0.315
49.47,103.15,0.315
49.52,103.69,0.315
49.57,104.22,0.315
49.63,104.76,0.316
49.68,105.29,0.316
49.73,105.82,0.316
49.79,106.36,0.316
49.84,106.89,0.316
49.89,107.42,0.317
49.95,107.96,
50.00,,