Folder: Data/FTIR

Note: FTIR/README
YargerLab FT-IR Data Repo

File: 16 a.trifasciata 11162021 Perceived Outer Yellow Crystals.0.dpt
3995.6,-0.00164
3983.24,-0.00198
3970.89,-0.00155
3958.53,-0.00165
3946.17,-0.00171
3933.81,-0.00158
3921.46,-0.00157
3909.1,-0.00173
3896.74,-0.00156
3884.38,-0.00139
3872.03,-0.00139
3859.67,-0.00142
3847.31,-0.00164
3834.95,-0.00156
3822.6,-0.00157
3810.24,-0.00142
3797.88,-0.00133
3785.52,-0.00150
3773.17,-0.00142
3760.81,-0.00115
3748.45,-0.00156
3736.09,-0.00150
3723.74,-0.00121
3711.38,-0.00144
3699.02,-0.00181
3686.66,-0.00190
3674.31,-0.00261
3661.95,-0.00329
3649.59,-0.00450
3637.23,-0.00541
3624.88,-0.00674
3612.52,-0.00786
3600.16,-0.00905
3587.8,-0.01011
3575.45,-0.01125
3563.09,-0.01225
3550.73,-0.01339
3538.37,-0.01448
3526.01,-0.01560
3513.66,-0.01678
3501.3,-0.01800
3488.94,-0.01894
3476.58,-0.02010
3464.23,-0.02100
3451.87,-0.02203
3439.51,-0.02280
3427.15,-0.02377
3414.8,-0.02425
3402.44,-0.02471
3390.08,-0.02511
3377.72,-0.02545
3365.37,-0.02533
3353.01,-0.02516
3340.65,-0.02518
3328.29,-0.02472
3315.94,-0.02474
3303.58,-0.02453
3291.22,-0.02458
3278.86,-0.02434
3266.51,-0.02411
3254.15,-0.02361
3241.79,-0.02310
3229.43,-0.02265
3217.08,-0.02193
3204.72,-0.02126
3192.36,-0.02035
3180,-0.01952
3167.65,-0.01847
3155.29,-0.01755
3142.93,-0.01667
3130.57,-0.01553
3118.22,-0.01459
3105.86,-0.01397
3093.5,-0.01315
3081.14,-0.01265
3068.79,-0.01187
3056.43,-0.01127
3044.07,-0.01070
3031.71,-0.01011
3019.36,-0.00945
3007,-0.00886
2994.64,-0.00859
2982.28,-0.00826
2969.93,-0.00811
2957.57,-0.00789
2945.21,-0.00763
2932.85,-0.00750
2920.5,-0.00723
2908.14,-0.00678
2895.78,-0.00661
2883.42,-0.00636
2871.07,-0.00615
2858.71,-0.00588
2846.35,-0.00582
2833.99,-0.00540
2821.64,-0.00542
2809.28,-0.00517
2796.92,-0.00505
2784.56,-0.00504
2772.21,-0.00485
2759.85,-0.00473
2747.49,-0.00461
2735.13,-0.00462
2722.78,-0.00454
2710.42,-0.00452
2698.06,-0.00436
2685.7,-0.00423
2673.35,-0.00428
2660.99,-0.00424
2648.63,-0.00417
2636.27,-0.00394
2623.92,-0.00390
2611.56,-0.00382
2599.2,-0.00390
2586.84,-0.00371
2574.49,-0.00374
2562.13,-0.00374
2549.77,-0.00356
2537.41,-0.00365
2525.06,-0.00367
2512.7,-0.00373
2500.34,-0.00369
2487.98,-0.00370
2475.62,-0.00361
2463.27,-0.00358
2450.91,-0.00355
2438.55,-0.00349
2426.19,-0.00360
2413.84,-0.00369
2401.48,-0.00368
2389.12,-0.00375
2376.76,-0.00393
2364.41,-0.00390
2352.05,-0.00385
2339.69,-0.00403
2327.33,-0.00392
2314.98,-0.00353
2302.62,-0.00378
2290.26,-0.00378
2277.9,-0.00372
2265.55,-0.00395
2253.19,-0.00359
2240.83,-0.00331
2228.47,-0.00344
2216.12,-0.00306
2203.76,-0.00295
2191.4,-0.00293
2179.04,-0.00311
2166.69,-0.00314
2154.33,-0.00343
2141.97,-0.00334
2129.61,-0.00415
2117.26,-0.00360
2104.9,-0.00332
2092.54,-0.00364
2080.18,-0.00433
2067.83,-0.00374
2055.47,-0.00298
2043.11,-0.00319
2030.75,-0.00325
2018.4,-0.00322
2006.04,-0.00325
1993.68,-0.00301
1981.32,-0.00289
1968.97,-0.00219
1956.61,-0.00249
1944.25,-0.00247
1931.89,-0.00332
1919.54,-0.00351
1907.18,-0.00319
1894.82,-0.00328
1882.46,-0.00301
1870.11,-0.00288
1857.75,-0.00305
1845.39,-0.00308
1833.03,-0.00300
1820.68,-0.00311
1808.32,-0.00305
1795.96,-0.00299
1783.6,-0.00305
1771.25,-0.00304
1758.89,-0.00334
1746.53,-0.00338
1734.17,-0.00359
1721.82,-0.00383
1709.46,-0.00448
1697.1,-0.00626
1684.74,-0.00817
1672.39,-0.01089
1660.03,-0.01361
1647.67,-0.01592
1635.31,-0.01685
1622.96,-0.01678
1610.6,-0.01588
1598.24,-0.01389
1585.88,-0.01263
1573.53,-0.01188
1561.17,-0.01183
1548.81,-0.01258
1536.45,-0.01243
1524.1,-0.01207
1511.74,-0.01163
1499.38,-0.01026
1487.02,-0.00902
1474.67,-0.00858
1462.31,-0.00854
1449.95,-0.00872
1437.59,-0.00850
1425.23,-0.00844
1412.88,-0.00906
1400.52,-0.00942
1388.16,-0.00980
1375.8,-0.00971
1363.45,-0.00952
1351.09,-0.00940
1338.73,-0.00916
1326.37,-0.00892
1314.02,-0.00873
1301.66,-0.00857
1289.3,-0.00817
1276.94,-0.00799
1264.59,-0.00787
1252.23,-0.00798
1239.87,-0.00811
1227.51,-0.00795
1215.16,-0.00764
1202.8,-0.00723
1190.44,-0.00690
1178.08,-0.00662
1165.73,-0.00701
1153.37,-0.00748
1141.01,-0.00821
1128.65,-0.00931
1116.3,-0.01085
1103.94,-0.01206
1091.58,-0.01278
1079.22,-0.01261
1066.87,-0.01185
1054.51,-0.01048
1042.15,-0.00945
1029.79,-0.00861
1017.44,-0.00807
1005.08,-0.00773
992.721,-0.00753
980.364,-0.00748
968.006,-0.00722
955.649,-0.00717
943.291,-0.00712
930.934,-0.00738
918.576,-0.00746
906.219,-0.00749
893.861,-0.00788
881.504,-0.00804
869.146,-0.00872
856.789,-0.00922
844.431,-0.00975
832.074,-0.01024
819.716,-0.01097
807.359,-0.01184
795.001,-0.01262
782.644,-0.01324
770.286,-0.01406
757.928,-0.01477
745.571,-0.01574
733.213,-0.01627
720.856,-0.01706
708.498,-0.01812
696.141,-0.01878
683.783,-0.01959
671.426,-0.02062
659.068,-0.02131
646.711,-0.02208
634.353,-0.02233
621.996,-0.02337
609.638,-0.02399
597.281,-0.02451
584.923,-0.02501
572.566,-0.02547
560.208,-0.02575
547.85,-0.02607
535.493,-0.02652
523.135,-0.02707
510.778,-0.02667
498.42,-0.02769
486.063,-0.02790
473.705,-0.02788
461.348,-0.02796
448.99,-0.02857
436.633,-0.02897
424.275,-0.02836
411.918,-0.03027
399.56,-0.02900

File: 2023_06_07_CBD_powder.dpt
3998.68	0.02431
3986.33	0.02391
3973.97	0.02447
3961.61	0.02372
3949.25	0.02447
3936.9	0.02413
3924.54	0.02449
3912.18	0.02425
3899.82	0.02361
3887.47	0.02372
3875.11	0.02387
3862.75	0.02306
3850.39	0.02397
3838.04	0.02360
3825.68	0.02305
3813.32	0.02352
3800.96	0.02287
3788.61	0.02281
3776.25	0.02236
3763.89	0.02304
3751.53	0.02353
3739.18	0.02230
3726.82	0.02165
3714.46	0.02261
3702.1	0.02219
3689.75	0.02163
3677.39	0.02205
3665.03	0.02175
3652.67	0.02134
3640.32	0.02178
3627.96	0.02149
3615.6	0.02122
3603.24	0.02152
3590.89	0.02153
3578.53	0.02227
3566.17	0.02218
3553.81	0.02388
3541.46	0.02899
3529.1	0.04915
3516.74	0.08613
3504.38	0.05332
3492.03	0.04734
3479.67	0.05128
3467.31	0.06064
3454.95	0.07335
3442.6	0.08635
3430.24	0.09774
3417.88	0.11361
3405.52	0.12969
3393.17	0.09936
3380.81	0.07202
3368.45	0.05763
3356.09	0.04851
3343.74	0.04271
3331.38	0.03863
3319.02	0.03572
3306.66	0.03348
3294.31	0.03113
3281.95	0.02968
3269.59	0.02833
3257.23	0.02806
3244.88	0.02723
3232.52	0.02711
3220.16	0.02666
3207.8	0.02643
3195.45	0.02668
3183.09	0.02582
3170.73	0.02556
3158.37	0.02536
3146.02	0.02512
3133.66	0.02591
3121.3	0.02538
3108.94	0.02587
3096.59	0.02560
3084.23	0.02647
3071.87	0.03830
3059.51	0.02712
3047.16	0.02682
3034.8	0.02923
3022.44	0.02752
3010.08	0.02776
2997.73	0.03013
2985.37	0.03453
2973.01	0.05472
2960.65	0.07902
2948.3	0.06278
2935.94	0.09743
2923.58	0.13959
2911.22	0.12474
2898.87	0.09058
2886.51	0.06934
2874.15	0.07335
2861.79	0.07943
2849.44	0.08792
2837.08	0.05206
2824.72	0.05937
2812.36	0.03922
2800.01	0.03473
2787.65	0.03285
2775.29	0.03104
2762.93	0.03034
2750.58	0.02926
2738.22	0.02977
2725.86	0.03178
2713.5	0.02923
2701.15	0.02848
2688.79	0.02836
2676.43	0.02872
2664.07	0.02883
2651.72	0.02834
2639.36	0.02752
2627	0.02736
2614.64	0.02680
2602.29	0.02673
2589.93	0.02636
2577.57	0.02608
2565.21	0.02574
2552.86	0.02559
2540.5	0.02557
2528.14	0.02589
2515.78	0.02519
2503.43	0.02585
2491.07	0.02627
2478.71	0.02562
2466.35	0.02554
2454	0.02609
2441.64	0.02500
2429.28	0.02416
2416.92	0.02429
2404.57	0.02366
2392.21	0.02428
2379.85	0.02490
2367.49	0.02464
2355.14	0.02528
2342.78	0.02470
2330.42	0.02418
2318.06	0.02428
2305.71	0.02372
2293.35	0.02395
2280.99	0.02298
2268.63	0.02270
2256.28	0.02165
2243.92	0.02162
2231.56	0.02074
2219.2	0.02086
2206.85	0.02095
2194.49	0.01985
2182.13	0.01828
2169.77	0.01930
2157.42	0.01578
2145.06	0.01850
2132.7	0.01840
2120.34	0.01949
2107.99	0.02130
2095.63	0.01947
2083.27	0.02106
2070.91	0.01903
2058.56	0.01886
2046.2	0.01921
2033.84	0.01780
2021.48	0.01732
2009.13	0.01773
1996.77	0.01718
1984.41	0.01777
1972.05	0.01624
1959.7	0.01693
1947.34	0.01795
1934.98	0.01872
1922.62	0.01925
1910.27	0.02011
1897.91	0.01989
1885.55	0.01992
1873.19	0.02023
1860.84	0.02021
1848.48	0.02030
1836.12	0.02074
1823.76	0.02098
1811.41	0.02136
1799.05	0.02260
1786.69	0.02178
1774.33	0.02268
1761.98	0.02183
1749.62	0.02116
1737.26	0.02141
1724.9	0.02150
1712.55	0.02205
1700.19	0.02199
1687.83	0.02262
1675.47	0.02282
1663.12	0.02628
1650.76	0.03222
1638.4	0.06047
1626.04	0.11959
1613.68	0.06961
1601.33	0.04306
1588.97	0.09485
1576.61	0.13266
1564.25	0.05027
1551.9	0.03603
1539.54	0.03060
1527.18	0.03094
1514.82	0.05382
1502.47	0.03826
1490.11	0.02963
1477.75	0.02894
1465.39	0.06330
1453.04	0.09321
1440.68	0.19278
1428.32	0.12380
1415.96	0.04708
1403.61	0.03760
1391.25	0.03381
1378.89	0.06281
1366.53	0.06320
1354.18	0.04654
1341.82	0.05619
1329.46	0.05599
1317.1	0.05776
1304.75	0.08418
1292.39	0.07770
1280.03	0.09193
1267.67	0.05621
1255.32	0.03741
1242.96	0.05539
1230.6	0.09188
1218.24	0.19146
1205.89	0.16153
1193.53	0.07213
1181.17	0.08555
1168.81	0.08568
1156.46	0.05032
1144.1	0.05344
1131.74	0.04670
1119.38	0.03494
1107.03	0.04088
1094.67	0.04791
1082.31	0.04784
1069.95	0.03993
1057.6	0.05153
1045.24	0.07312
1032.88	0.12298
1020.52	0.14402
1008.17	0.09273
995.809	0.07856
983.452	0.07356
971.094	0.05379
958.737	0.07723
946.379	0.04140
934.022	0.03808
921.664	0.04001
909.307	0.04525
896.949	0.15686
884.592	0.16603
872.234	0.08240
859.877	0.11058
847.519	0.11467
835.162	0.09570
822.804	0.10174
810.447	0.05562
798.089	0.06610
785.732	0.05512
773.374	0.04673
761.017	0.03871
748.659	0.05798
736.302	0.04012
723.944	0.04437
711.587	0.03682
699.229	0.03200
686.872	0.03247
674.514	0.03794
662.157	0.05453
649.799	0.05872
637.442	0.04416
625.084	0.05300
612.727	0.05391
600.369	0.06446
588.012	0.09074
575.654	0.06709
563.297	0.07560
550.939	0.08161
538.582	0.10410
526.224	0.11896
513.867	0.09391
501.509	0.13453
489.151	0.15677
476.794	0.13473
464.436	0.15333
452.079	0.15030
439.721	0.12258
427.364	0.14180
415.006	0.14256
402.649	0.18304
399.56	0.19127

File: 2023_06_07_CBG_powder.dpt
3998.68	0.00498
3986.33	0.00444
3973.97	0.00501
3961.61	0.00511
3949.25	0.00491
3936.9	0.00479
3924.54	0.00513
3912.18	0.00466
3899.82	0.00415
3887.47	0.00415
3875.11	0.00478
3862.75	0.00443
3850.39	0.00429
3838.04	0.00518
3825.68	0.00398
3813.32	0.00494
3800.96	0.00351
3788.61	0.00398
3776.25	0.00441
3763.89	0.00391
3751.53	0.00422
3739.18	0.00358
3726.82	0.00377
3714.46	0.00347
3702.1	0.00343
3689.75	0.00399
3677.39	0.00287
3665.03	0.00357
3652.67	0.00291
3640.32	0.00350
3627.96	0.00408
3615.6	0.00456
3603.24	0.00363
3590.89	0.00395
3578.53	0.00494
3566.17	0.00560
3553.81	0.00737
3541.46	0.00909
3529.1	0.01219
3516.74	0.01669
3504.38	0.02031
3492.03	0.02727
3479.67	0.03891
3467.31	0.06366
3454.95	0.08436
3442.6	0.06654
3430.24	0.06169
3417.88	0.05946
3405.52	0.05085
3393.17	0.04632
3380.81	0.04428
3368.45	0.04510
3356.09	0.04611
3343.74	0.04794
3331.38	0.05111
3319.02	0.05611
3306.66	0.06316
3294.31	0.07281
3281.95	0.08566
3269.59	0.09549
3257.23	0.09897
3244.88	0.09197
3232.52	0.08135
3220.16	0.07213
3207.8	0.06756
3195.45	0.06373
3183.09	0.06099
3170.73	0.05752
3158.37	0.05316
3146.02	0.04993
3133.66	0.04560
3121.3	0.04027
3108.94	0.03711
3096.59	0.03395
3084.23	0.03142
3071.87	0.02994
3059.51	0.02751
3047.16	0.02775
3034.8	0.02983
3022.44	0.02924
3010.08	0.03153
2997.73	0.03871
2985.37	0.05688
2973.01	0.07626
2960.65	0.15776
2948.3	0.10980
2935.94	0.16034
2923.58	0.25191
2911.22	0.19603
2898.87	0.13147
2886.51	0.10322
2874.15	0.10445
2861.79	0.12430
2849.44	0.14590
2837.08	0.07561
2824.72	0.05069
2812.36	0.03891
2800.01	0.03424
2787.65	0.02969
2775.29	0.02765
2762.93	0.02622
2750.58	0.02596
2738.22	0.02688
2725.86	0.03032
2713.5	0.02572
2701.15	0.02353
2688.79	0.02315
2676.43	0.02281
2664.07	0.02113
2651.72	0.02020
2639.36	0.01896
2627	0.01796
2614.64	0.01691
2602.29	0.01644
2589.93	0.01582
2577.57	0.01581
2565.21	0.01521
2552.86	0.01366
2540.5	0.01326
2528.14	0.01370
2515.78	0.01275
2503.43	0.01224
2491.07	0.01238
2478.71	0.01163
2466.35	0.01175
2454	0.01149
2441.64	0.01111
2429.28	0.01055
2416.92	0.01011
2404.57	0.01024
2392.21	0.00971
2379.85	0.00947
2367.49	0.00911
2355.14	0.01024
2342.78	0.00892
2330.42	0.00919
2318.06	0.00991
2305.71	0.00939
2293.35	0.00951
2280.99	0.00887
2268.63	0.00833
2256.28	0.00826
2243.92	0.00835
2231.56	0.00825
2219.2	0.00756
2206.85	0.00667
2194.49	0.00648
2182.13	0.00743
2169.77	0.00710
2157.42	0.00374
2145.06	0.00609
2132.7	0.00591
2120.34	0.00788
2107.99	0.00742
2095.63	0.00730
2083.27	0.00720
2070.91	0.00820
2058.56	0.00646
2046.2	0.00719
2033.84	0.00386
2021.48	0.00530
2009.13	0.00517
1996.77	0.00529
1984.41	0.00560
1972.05	0.00555
1959.7	0.00444
1947.34	0.00580
1934.98	0.00569
1922.62	0.00569
1910.27	0.00657
1897.91	0.00693
1885.55	0.00641
1873.19	0.00693
1860.84	0.00634
1848.48	0.00689
1836.12	0.00728
1823.76	0.00762
1811.41	0.00744
1799.05	0.00775
1786.69	0.00796
1774.33	0.00824
1761.98	0.00915
1749.62	0.00933
1737.26	0.01149
1724.9	0.00969
1712.55	0.01153
1700.19	0.01117
1687.83	0.01224
1675.47	0.01788
1663.12	0.01488
1650.76	0.01965
1638.4	0.08336
1626.04	0.10805
1613.68	0.04397
1601.33	0.03520
1588.97	0.10286
1576.61	0.10576
1564.25	0.04026
1551.9	0.02862
1539.54	0.02904
1527.18	0.07660
1514.82	0.10465
1502.47	0.05033
1490.11	0.03127
1477.75	0.03197
1465.39	0.12360
1453.04	0.19713
1440.68	0.30110
1428.32	0.11913
1415.96	0.06273
1403.61	0.08033
1391.25	0.09368
1378.89	0.07867
1366.53	0.07987
1354.18	0.06093
1341.82	0.22604
1329.46	0.11994
1317.1	0.16965
1304.75	0.12277
1292.39	0.06624
1280.03	0.07615
1267.67	0.10491
1255.32	0.14807
1242.96	0.06880
1230.6	0.04496
1218.24	0.10646
1205.89	0.07204
1193.53	0.10739
1181.17	0.07278
1168.81	0.11537
1156.46	0.25479
1144.1	0.37489
1131.74	0.19241
1119.38	0.09938
1107.03	0.13356
1094.67	0.12086
1082.31	0.09160
1069.95	0.06860
1057.6	0.06826
1045.24	0.29801
1032.88	0.13845
1020.52	0.10760
1008.17	0.19116
995.809	0.10798
983.452	0.10681
971.094	0.10465
958.737	0.06405
946.379	0.04233
934.022	0.03613
921.664	0.08134
909.307	0.08980
896.949	0.07105
884.592	0.05195
872.234	0.04363
859.877	0.23978
847.519	0.11710
835.162	0.22346
822.804	0.07566
810.447	0.06815
798.089	0.10928
785.732	0.08749
773.374	0.09383
761.017	0.08922
748.659	0.09784
736.302	0.10584
723.944	0.12416
711.587	0.06765
699.229	0.06649
686.872	0.06981
674.514	0.07467
662.157	0.07199
649.799	0.12081
637.442	0.13578
625.084	0.14886
612.727	0.11873
600.369	0.15361
588.012	0.19222
575.654	0.19876
563.297	0.16110
550.939	0.12218
538.582	0.15760
526.224	0.14883
513.867	0.11265
501.509	0.09056
489.151	0.11734
476.794	0.08821
464.436	0.08224
452.079	0.13533
439.721	0.14374
427.364	0.16260
415.006	0.13458
402.649	0.14144
399.56	0.13834

File: 2023_06_07_CBN_powder.dpt
3998.68	0.04412
3986.33	0.04344
3973.97	0.04379
3961.61	0.04367
3949.25	0.04355
3936.9	0.04306
3924.54	0.04329
3912.18	0.04303
3899.82	0.04343
3887.47	0.04281
3875.11	0.04248
3862.75	0.04244
3850.39	0.04278
3838.04	0.04282
3825.68	0.04230
3813.32	0.04230
3800.96	0.04222
3788.61	0.04159
3776.25	0.04168
3763.89	0.04137
3751.53	0.04178
3739.18	0.04052
3726.82	0.03982
3714.46	0.04022
3702.1	0.03946
3689.75	0.04053
3677.39	0.04010
3665.03	0.03981
3652.67	0.04059
3640.32	0.04019
3627.96	0.03966
3615.6	0.03934
3603.24	0.03993
3590.89	0.03942
3578.53	0.04015
3566.17	0.03995
3553.81	0.04018
3541.46	0.04099
3529.1	0.04147
3516.74	0.04277
3504.38	0.04421
3492.03	0.04545
3479.67	0.04776
3467.31	0.05157
3454.95	0.05564
3442.6	0.06089
3430.24	0.06766
3417.88	0.07631
3405.52	0.08379
3393.17	0.08511
3380.81	0.08088
3368.45	0.07594
3356.09	0.07190
3343.74	0.06964
3331.38	0.06880
3319.02	0.06913
3306.66	0.07085
3294.31	0.07349
3281.95	0.07662
3269.59	0.07999
3257.23	0.08347
3244.88	0.08629
3232.52	0.08902
3220.16	0.08925
3207.8	0.08785
3195.45	0.08443
3183.09	0.08013
3170.73	0.07481
3158.37	0.07050
3146.02	0.06621
3133.66	0.06222
3121.3	0.05989
3108.94	0.05654
3096.59	0.05429
3084.23	0.05375
3071.87	0.05278
3059.51	0.05205
3047.16	0.05188
3034.8	0.05322
3022.44	0.05046
3010.08	0.04820
2997.73	0.05399
2985.37	0.06322
2973.01	0.08497
2960.65	0.11222
2948.3	0.08619
2935.94	0.11289
2923.58	0.17159
2911.22	0.12688
2898.87	0.09987
2886.51	0.08408
2874.15	0.09225
2861.79	0.10278
2849.44	0.13336
2837.08	0.08277
2824.72	0.06918
2812.36	0.06355
2800.01	0.05965
2787.65	0.05713
2775.29	0.05517
2762.93	0.05436
2750.58	0.05359
2738.22	0.05445
2725.86	0.05552
2713.5	0.05361
2701.15	0.05336
2688.79	0.05224
2676.43	0.05143
2664.07	0.05204
2651.72	0.05233
2639.36	0.05124
2627	0.05018
2614.64	0.04882
2602.29	0.04843
2589.93	0.04890
2577.57	0.04798
2565.21	0.04814
2552.86	0.04655
2540.5	0.04624
2528.14	0.04612
2515.78	0.04605
2503.43	0.04511
2491.07	0.04475
2478.71	0.04421
2466.35	0.04356
2454	0.04389
2441.64	0.04314
2429.28	0.04368
2416.92	0.04322
2404.57	0.04333
2392.21	0.04286
2379.85	0.04309
2367.49	0.04303
2355.14	0.04348
2342.78	0.04387
2330.42	0.04328
2318.06	0.04285
2305.71	0.04179
2293.35	0.04112
2280.99	0.04016
2268.63	0.03919
2256.28	0.03684
2243.92	0.03757
2231.56	0.03604
2219.2	0.03576
2206.85	0.03401
2194.49	0.03529
2182.13	0.03211
2169.77	0.03294
2157.42	0.02713
2145.06	0.03070
2132.7	0.03266
2120.34	0.03494
2107.99	0.03597
2095.63	0.03394
2083.27	0.03514
2070.91	0.03327
2058.56	0.03318
2046.2	0.03153
2033.84	0.02775
2021.48	0.02918
2009.13	0.02817
1996.77	0.02866
1984.41	0.03034
1972.05	0.02933
1959.7	0.02836
1947.34	0.03063
1934.98	0.03305
1922.62	0.03321
1910.27	0.03622
1897.91	0.03468
1885.55	0.03434
1873.19	0.03347
1860.84	0.03461
1848.48	0.03508
1836.12	0.03468
1823.76	0.03435
1811.41	0.03451
1799.05	0.03474
1786.69	0.03452
1774.33	0.03590
1761.98	0.03483
1749.62	0.03382
1737.26	0.03348
1724.9	0.03434
1712.55	0.03554
1700.19	0.03430
1687.83	0.03460
1675.47	0.03309
1663.12	0.03251
1650.76	0.03229
1638.4	0.03930
1626.04	0.12452
1613.68	0.13724
1601.33	0.10084
1588.97	0.11359
1576.61	0.14138
1564.25	0.09509
1551.9	0.05958
1539.54	0.05098
1527.18	0.04715
1514.82	0.05716
1502.47	0.06371
1490.11	0.08292
1477.75	0.05298
1465.39	0.11072
1453.04	0.09441
1440.68	0.11977
1428.32	0.16029
1415.96	0.11817
1403.61	0.16626
1391.25	0.13607
1378.89	0.12445
1366.53	0.12123
1354.18	0.13307
1341.82	0.12115
1329.46	0.10878
1317.1	0.08830
1304.75	0.10860
1292.39	0.12676
1280.03	0.14049
1267.67	0.07795
1255.32	0.06598
1242.96	0.10629
1230.6	0.15312
1218.24	0.10714
1205.89	0.08880
1193.53	0.17833
1181.17	0.08721
1168.81	0.06761
1156.46	0.14207
1144.1	0.07347
1131.74	0.14044
1119.38	0.12689
1107.03	0.08714
1094.67	0.11345
1082.31	0.06391
1069.95	0.06742
1057.6	0.16096
1045.24	0.24704
1032.88	0.14996
1020.52	0.17931
1008.17	0.10810
995.809	0.12571
983.452	0.08283
971.094	0.07659
958.737	0.07478
946.379	0.06427
934.022	0.07488
921.664	0.09032
909.307	0.05390
896.949	0.08718
884.592	0.06021
872.234	0.15105
859.877	0.09963
847.519	0.16937
835.162	0.15348
822.804	0.10365
810.447	0.12974
798.089	0.06928
785.732	0.05933
773.374	0.08723
761.017	0.06776
748.659	0.05852
736.302	0.11130
723.944	0.09537
711.587	0.10218
699.229	0.10031
686.872	0.11554
674.514	0.11201
662.157	0.12304
649.799	0.09016
637.442	0.08146
625.084	0.08946
612.727	0.08343
600.369	0.14621
588.012	0.12952
575.654	0.16310
563.297	0.12000
550.939	0.12349
538.582	0.13171
526.224	0.13357
513.867	0.09121
501.509	0.08765
489.151	0.09055
476.794	0.07067
464.436	0.06356
452.079	0.06350
439.721	0.06419
427.364	0.05523
415.006	0.05438
402.649	0.05814
399.56	0.05380

File: 2023_06_14_CBG_new_powder.dpt
3998.68	0.01352
3986.33	0.01390
3973.97	0.01331
3961.61	0.01366
3949.25	0.01303
3936.9	0.01329
3924.54	0.01328
3912.18	0.01349
3899.82	0.01319
3887.47	0.01288
3875.11	0.01257
3862.75	0.01259
3850.39	0.01298
3838.04	0.01343
3825.68	0.01187
3813.32	0.01275
3800.96	0.01181
3788.61	0.01234
3776.25	0.01294
3763.89	0.01210
3751.53	0.01183
3739.18	0.01194
3726.82	0.01191
3714.46	0.01135
3702.1	0.01148
3689.75	0.01194
3677.39	0.01181
3665.03	0.01124
3652.67	0.01170
3640.32	0.01085
3627.96	0.01003
3615.6	0.01207
3603.24	0.01161
3590.89	0.01248
3578.53	0.01290
3566.17	0.01351
3553.81	0.01538
3541.46	0.01670
3529.1	0.01964
3516.74	0.02355
3504.38	0.02803
3492.03	0.03399
3479.67	0.04602
3467.31	0.07072
3454.95	0.09173
3442.6	0.07300
3430.24	0.06791
3417.88	0.06581
3405.52	0.05694
3393.17	0.05211
3380.81	0.05073
3368.45	0.05176
3356.09	0.05302
3343.74	0.05519
3331.38	0.05800
3319.02	0.06328
3306.66	0.07111
3294.31	0.08129
3281.95	0.09335
3269.59	0.10390
3257.23	0.10670
3244.88	0.10083
3232.52	0.08886
3220.16	0.08021
3207.8	0.07520
3195.45	0.07069
3183.09	0.06796
3170.73	0.06395
3158.37	0.05933
3146.02	0.05596
3133.66	0.05173
3121.3	0.04718
3108.94	0.04312
3096.59	0.04086
3084.23	0.03775
3071.87	0.03652
3059.51	0.03434
3047.16	0.03415
3034.8	0.03661
3022.44	0.03564
3010.08	0.03733
2997.73	0.04497
2985.37	0.06185
2973.01	0.08137
2960.65	0.16164
2948.3	0.11567
2935.94	0.16709
2923.58	0.26462
2911.22	0.21092
2898.87	0.14049
2886.51	0.11064
2874.15	0.11101
2861.79	0.13156
2849.44	0.16650
2837.08	0.08371
2824.72	0.05823
2812.36	0.04644
2800.01	0.04152
2787.65	0.03733
2775.29	0.03491
2762.93	0.03323
2750.58	0.03318
2738.22	0.03404
2725.86	0.03714
2713.5	0.03255
2701.15	0.03031
2688.79	0.02988
2676.43	0.02936
2664.07	0.02789
2651.72	0.02670
2639.36	0.02547
2627	0.02438
2614.64	0.02338
2602.29	0.02232
2589.93	0.02179
2577.57	0.02126
2565.21	0.02103
2552.86	0.01966
2540.5	0.01943
2528.14	0.01925
2515.78	0.01841
2503.43	0.01807
2491.07	0.01787
2478.71	0.01793
2466.35	0.01762
2454	0.01692
2441.64	0.01641
2429.28	0.01635
2416.92	0.01644
2404.57	0.01586
2392.21	0.01509
2379.85	0.01522
2367.49	0.01546
2355.14	0.01547
2342.78	0.01502
2330.42	0.01590
2318.06	0.01592
2305.71	0.01536
2293.35	0.01411
2280.99	0.01364
2268.63	0.01354
2256.28	0.01289
2243.92	0.01275
2231.56	0.01174
2219.2	0.01215
2206.85	0.01170
2194.49	0.01103
2182.13	0.01032
2169.77	0.01097
2157.42	0.00690
2145.06	0.00916
2132.7	0.00956
2120.34	0.01154
2107.99	0.01194
2095.63	0.01008
2083.27	0.01199
2070.91	0.01054
2058.56	0.01072
2046.2	0.00858
2033.84	0.00713
2021.48	0.00856
2009.13	0.00922
1996.77	0.00827
1984.41	0.00944
1972.05	0.00908
1959.7	0.00915
1947.34	0.00904
1934.98	0.01046
1922.62	0.01026
1910.27	0.01062
1897.91	0.01035
1885.55	0.01088
1873.19	0.01078
1860.84	0.01084
1848.48	0.01087
1836.12	0.01146
1823.76	0.01159
1811.41	0.01202
1799.05	0.01171
1786.69	0.01208
1774.33	0.01223
1761.98	0.01342
1749.62	0.01346
1737.26	0.01581
1724.9	0.01375
1712.55	0.01547
1700.19	0.01318
1687.83	0.01553
1675.47	0.02145
1663.12	0.01830
1650.76	0.02233
1638.4	0.08460
1626.04	0.10769
1613.68	0.04662
1601.33	0.03855
1588.97	0.10598
1576.61	0.11158
1564.25	0.04498
1551.9	0.03264
1539.54	0.03473
1527.18	0.08075
1514.82	0.10903
1502.47	0.05448
1490.11	0.03436
1477.75	0.03506
1465.39	0.12636
1453.04	0.19724
1440.68	0.29743
1428.32	0.11857
1415.96	0.06448
1403.61	0.08192
1391.25	0.09503
1378.89	0.07893
1366.53	0.08078
1354.18	0.06187
1341.82	0.22271
1329.46	0.11973
1317.1	0.17052
1304.75	0.12305
1292.39	0.06742
1280.03	0.07750
1267.67	0.10645
1255.32	0.15158
1242.96	0.07082
1230.6	0.04674
1218.24	0.10792
1205.89	0.07467
1193.53	0.11148
1181.17	0.07453
1168.81	0.11652
1156.46	0.25398
1144.1	0.36829
1131.74	0.19752
1119.38	0.10451
1107.03	0.13439
1094.67	0.12306
1082.31	0.09439
1069.95	0.07094
1057.6	0.06986
1045.24	0.29174
1032.88	0.14088
1020.52	0.10852
1008.17	0.19489
995.809	0.11140
983.452	0.10957
971.094	0.10701
958.737	0.06854
946.379	0.04663
934.022	0.04059
921.664	0.08272
909.307	0.09084
896.949	0.07235
884.592	0.05361
872.234	0.04589
859.877	0.23200
847.519	0.11506
835.162	0.21759
822.804	0.07449
810.447	0.06777
798.089	0.10795
785.732	0.08667
773.374	0.09239
761.017	0.08840
748.659	0.09700
736.302	0.10520
723.944	0.12100
711.587	0.06787
699.229	0.06671
686.872	0.07001
674.514	0.07512
662.157	0.07255
649.799	0.11792
637.442	0.13313
625.084	0.14540
612.727	0.11632
600.369	0.15237
588.012	0.18489
575.654	0.19036
563.297	0.15516
550.939	0.11576
538.582	0.15242
526.224	0.14394
513.867	0.10640
501.509	0.08802
489.151	0.11375
476.794	0.08460
464.436	0.08293
452.079	0.12949
439.721	0.14070
427.364	0.15630
415.006	0.12699
402.649	0.13446
399.56	0.13193