Folder: Data/Raman (part 3)

File: 2022_11_26_Nylon6_532nm_DePol_6mW_750mm_600gv_1200wn_iDus_100s_10accum_Pos1.csv
282.050,1181.000,1175.000,1203.000,1154.000,1185.000,1191.000,1162.000,1175.000,1178.000,1181.000
300.870,1181.000,1190.000,1176.000,1207.000,1180.000,1205.000,1141.000,1187.000,1182.000,1172.000
319.652,1106.000,1083.000,1070.000,1092.000,1059.000,1092.000,1090.000,1079.000,1076.000,1093.000
338.396,1037.000,1027.000,1059.000,1069.000,1032.000,1023.000,1060.000,1025.000,1056.000,1021.000
357.101,978.000,961.000,956.000,962.000,969.000,945.000,978.000,970.000,963.000,949.000
375.769,952.000,956.000,946.000,1039.000,920.000,936.000,933.000,945.000,947.000,938.000
394.399,908.000,914.000,909.000,906.000,896.000,890.000,899.000,903.000,890.000,892.000
412.991,873.000,862.000,857.000,851.000,858.000,855.000,880.000,855.000,851.000,853.000
431.546,907.000,887.000,883.000,895.000,916.000,874.000,883.000,892.000,897.000,888.000
450.064,852.000,868.000,856.000,857.000,848.000,855.000,866.000,859.000,855.000,858.000
468.544,835.000,833.000,831.000,831.000,848.000,838.000,819.000,822.000,827.000,827.000
486.987,836.000,868.000,831.000,831.000,850.000,830.000,832.000,832.000,833.000,824.000
505.393,896.000,890.000,875.000,887.000,876.000,887.000,873.000,882.000,868.000,867.000
523.762,927.000,913.000,915.000,898.000,906.000,903.000,910.000,906.000,918.000,890.000
542.094,940.000,910.000,933.000,922.000,929.000,932.000,909.000,922.000,929.000,924.000
560.389,827.000,831.000,846.000,854.000,848.000,830.000,837.000,839.000,832.000,836.000
578.647,1077.000,1092.000,1093.000,1086.000,1076.000,1064.000,1041.000,1077.000,1090.000,1074.000
596.870,1204.000,1195.000,1174.000,1179.000,1198.000,1173.000,1147.000,1170.000,1155.000,1140.000
615.055,1127.000,1124.000,1111.000,1103.000,1115.000,1123.000,1116.000,1115.000,1087.000,1103.000
633.205,1088.000,1075.000,1077.000,1081.000,1096.000,1068.000,1093.000,1073.000,1078.000,1043.000
651.318,991.000,966.000,959.000,956.000,953.000,947.000,917.000,953.000,951.000,956.000
669.395,931.000,929.000,935.000,927.000,930.000,940.000,926.000,920.000,914.000,920.000
687.436,945.000,933.000,929.000,947.000,912.000,933.000,929.000,936.000,916.000,936.000
705.441,1022.000,1029.000,1021.000,1028.000,1024.000,1041.000,1018.000,1027.000,1008.000,998.000
723.411,1035.000,1035.000,1048.000,1029.000,1063.000,1062.000,1038.000,1030.000,1023.000,1032.000
741.345,1137.000,1126.000,1119.000,1141.000,1117.000,1107.000,1123.000,1090.000,1131.000,1101.000
759.243,1094.000,1079.000,1091.000,1083.000,1070.000,1066.000,1102.000,1077.000,1067.000,1063.000
777.106,1043.000,1029.000,1048.000,1038.000,1052.000,1053.000,1063.000,1014.000,1046.000,1025.000
794.933,1075.000,1054.000,1053.000,1062.000,1061.000,1053.000,1035.000,1031.000,1058.000,1052.000
812.727,1182.000,1168.000,1208.000,1177.000,1213.000,1184.000,1168.000,1201.000,1167.000,1189.000
830.484,1448.000,1479.000,1477.000,1446.000,1441.000,1436.000,1429.000,1439.000,1430.000,1468.000
848.207,1532.000,1546.000,1547.000,1506.000,1547.000,1514.000,1526.000,1511.000,1504.000,1543.000
865.894,1604.000,1598.000,1603.000,1560.000,1556.000,1545.000,1570.000,1579.000,1597.000,1576.000
883.546,1874.000,1822.000,1833.000,1795.000,1878.000,1867.000,1824.000,1811.000,1817.000,1818.000
901.164,1864.000,1851.000,1833.000,1899.000,1856.000,1868.000,1856.000,1840.000,1839.000,1882.000
918.747,2556.000,2591.000,2510.000,2602.000,2536.000,2521.000,2557.000,2496.000,2539.000,2497.000
936.295,2456.000,2449.000,2460.000,2434.000,2429.000,2499.000,2424.000,2426.000,2424.000,2471.000
953.809,2075.000,2082.000,2022.000,1983.000,2006.000,2029.000,1990.000,2002.000,2048.000,2071.000
971.289,2079.000,2020.000,2038.000,2011.000,2135.000,2029.000,2025.000,2033.000,2057.000,2067.000
988.734,1567.000,1568.000,1574.000,1604.000,1540.000,1555.000,1569.000,1565.000,1557.000,1554.000
1006.146,1376.000,1401.000,1379.000,1414.000,1392.000,1404.000,1382.000,1369.000,1386.000,1386.000
1023.523,1448.000,1458.000,1434.000,1430.000,1439.000,1442.000,1458.000,1431.000,1444.000,1431.000
1040.867,1780.000,1798.000,1797.000,1806.000,1797.000,1804.000,1822.000,1808.000,1812.000,1818.000
1058.176,3214.000,3195.000,3180.000,3218.000,3164.000,3260.000,3151.000,3145.000,3138.000,3239.000
1075.452,3692.000,3700.000,3627.000,3648.000,3632.000,3715.000,3667.000,3631.000,3664.000,3707.000
1092.694,2326.000,2303.000,2341.000,2314.000,2313.000,2282.000,2337.000,2361.000,2354.000,2348.000
1109.903,2852.000,2847.000,2847.000,2822.000,2822.000,2854.000,2811.000,2775.000,2826.000,2782.000
1127.079,4273.000,4238.000,4208.000,4269.000,4191.000,4282.000,4232.000,4192.000,4198.000,4249.000
1144.221,1303.000,1331.000,1312.000,1321.000,1321.000,1324.000,1300.000,1339.000,1294.000,1287.000
1161.330,2200.000,2245.000,2275.000,2227.000,2201.000,2247.000,2222.000,2233.000,2186.000,2231.000
1178.405,1477.000,1474.000,1394.000,1416.000,1444.000,1455.000,1439.000,1431.000,1470.000,1431.000
1195.448,2677.000,2681.000,2728.000,2675.000,2696.000,2650.000,2661.000,2658.000,2650.000,2660.000
1212.458,1692.000,1631.000,1607.000,1637.000,1646.000,1601.000,1624.000,1635.000,1618.000,1643.000
1229.434,2084.000,2110.000,2075.000,2117.000,2128.000,2121.000,2064.000,2084.000,2079.000,2130.000
1246.379,2204.000,2210.000,2217.000,2195.000,2208.000,2182.000,2186.000,2215.000,2211.000,2231.000
1263.290,2883.000,2925.000,2893.000,2879.000,2886.000,2889.000,2875.000,2846.000,2910.000,2900.000
1280.169,3439.000,3397.000,3405.000,3396.000,3336.000,3406.000,3336.000,3352.000,3339.000,3349.000
1297.015,3605.000,3613.000,3572.000,3603.000,3643.000,3591.000,3584.000,3613.000,3639.000,3587.000
1313.830,2259.000,2250.000,2211.000,2211.000,2166.000,2192.000,2208.000,2195.000,2182.000,2196.000
1330.611,1691.000,1665.000,1657.000,1688.000,1666.000,1688.000,1672.000,1672.000,1668.000,1675.000
1347.361,1794.000,1836.000,1817.000,1791.000,1844.000,1839.000,1810.000,1825.000,1803.000,1813.000
1364.078,2459.000,2500.000,2499.000,2550.000,2567.000,2498.000,2564.000,2531.000,2497.000,2485.000
1380.764,2306.000,2374.000,2328.000,2359.000,2367.000,2324.000,2342.000,2316.000,2363.000,2383.000
1397.418,1384.000,1385.000,1364.000,1383.000,1347.000,1360.000,1368.000,1371.000,1397.000,1356.000
1414.039,2287.000,2289.000,2278.000,2307.000,2299.000,2272.000,2265.000,2263.000,2319.000,2272.000
1430.629,4716.000,4764.000,4588.000,4697.000,4691.000,4565.000,4642.000,4671.000,4631.000,4703.000
1447.188,3112.000,3089.000,3034.000,3061.000,3071.000,3050.000,3088.000,3043.000,3094.000,3135.000
1463.715,2729.000,2688.000,2706.000,2699.000,2637.000,2683.000,2729.000,2683.000,2723.000,2682.000
1480.210,1520.000,1553.000,1516.000,1542.000,1541.000,1490.000,1515.000,1499.000,1501.000,1522.000
1496.674,1055.000,1056.000,1065.000,1053.000,1046.000,1032.000,1067.000,1053.000,1053.000,1041.000
1513.107,1035.000,1024.000,1038.000,1025.000,1033.000,1044.000,1028.000,1032.000,1027.000,1012.000
1529.509,1191.000,1160.000,1187.000,1190.000,1198.000,1192.000,1176.000,1162.000,1174.000,1198.000
1545.879,1135.000,1158.000,1125.000,1128.000,1142.000,1144.000,1126.000,1116.000,1110.000,1144.000
1562.219,1043.000,1040.000,1054.000,1038.000,1062.000,1045.000,1036.000,1044.000,1023.000,1039.000
1578.527,993.000,993.000,1001.000,1004.000,975.000,995.000,990.000,996.000,971.000,994.000
1594.805,1214.000,1224.000,1189.000,1204.000,1216.000,1232.000,1211.000,1203.000,1197.000,1203.000
1611.052,1792.000,1799.000,1788.000,1779.000,1792.000,1783.000,1730.000,1768.000,1766.000,1786.000
1627.268,8255.000,8283.000,8247.000,8346.000,8284.000,8278.000,8286.000,8221.000,8230.000,8262.000
1643.454,2684.000,2674.000,2719.000,2732.000,2693.000,2708.000,2696.000,2630.000,2697.000,2681.000
1659.609,1683.000,1655.000,1662.000,1633.000,1637.000,1675.000,1666.000,1661.000,1667.000,1643.000
1675.734,1090.000,1086.000,1065.000,1095.000,1071.000,1052.000,1114.000,1085.000,1085.000,1078.000
1691.829,887.000,885.000,896.000,887.000,903.000,891.000,896.000,876.000,888.000,889.000
1707.893,866.000,842.000,841.000,847.000,854.000,840.000,842.000,851.000,1093.000,840.000
1723.927,837.000,840.000,841.000,846.000,842.000,820.000,827.000,819.000,822.000,813.000
1739.931,840.000,827.000,833.000,833.000,833.000,846.000,820.000,809.000,827.000,820.000
1755.905,812.000,829.000,811.000,804.000,793.000,813.000,810.000,811.000,809.000,823.000
1771.849,828.000,829.000,825.000,822.000,797.000,809.000,820.000,807.000,824.000,799.000
1787.764,819.000,823.000,823.000,793.000,810.000,810.000,805.000,812.000,809.000,810.000
1803.649,813.000,821.000,804.000,815.000,821.000,818.000,811.000,809.000,806.000,811.000
1819.505,832.000,831.000,837.000,826.000,831.000,831.000,826.000,811.000,823.000,812.000
1835.331,843.000,841.000,828.000,825.000,839.000,817.000,814.000,814.000,822.000,812.000
1851.127,845.000,846.000,845.000,821.000,835.000,848.000,837.000,827.000,835.000,831.000
1866.894,862.000,848.000,846.000,846.000,852.000,832.000,852.000,854.000,835.000,807.000
1882.631,851.000,855.000,857.000,854.000,851.000,861.000,842.000,854.000,851.000,1089.000
1898.339,882.000,866.000,888.000,875.000,855.000,874.000,877.000,871.000,861.000,857.000
1914.018,877.000,887.000,861.000,877.000,873.000,859.000,863.000,864.000,885.000,883.000
1929.668,890.000,897.000,895.000,867.000,896.000,893.000,899.000,897.000,900.000,899.000
1945.289,902.000,917.000,910.000,912.000,920.000,901.000,897.000,923.000,899.000,1027.000
1960.881,923.000,932.000,949.000,915.000,935.000,933.000,945.000,938.000,932.000,918.000
1976.444,972.000,988.000,988.000,963.000,980.000,972.000,967.000,953.000,968.000,965.000
1991.978,1031.000,1028.000,1017.000,1000.000,1024.000,992.000,1034.000,1018.000,1029.000,1017.000
2007.484,1113.000,1100.000,1107.000,1119.000,1103.000,1090.000,1078.000,1099.000,1106.000,1095.000
2022.961,1255.000,1261.000,1273.000,1243.000,1277.000,1264.000,1254.000,1267.000,1242.000,1249.000
2027.598,1349.000,1349.000,1311.000,1324.000,1363.000,1344.000,1347.000,1335.000,1352.000,1361.000

File: 2022_11_26_Nylon6_532nm_DePol_6mW_750mm_600gv_3200wn_iDus_100s_10accum_Pos1.csv
2487.376,772.000,779.000,786.000,786.000,774.000,784.000,770.000,778.000,787.000,746.000
2501.895,767.000,763.000,772.000,766.000,773.000,776.000,770.000,777.000,763.000,757.000
2516.389,767.000,776.000,786.000,788.000,771.000,773.000,764.000,766.000,769.000,773.000
2530.855,795.000,795.000,797.000,786.000,788.000,787.000,797.000,802.000,770.000,776.000
2545.298,810.000,813.000,812.000,824.000,809.000,824.000,808.000,807.000,801.000,806.000
2559.714,838.000,837.000,842.000,843.000,847.000,852.000,866.000,851.000,870.000,837.000
2574.105,881.000,871.000,890.000,868.000,891.000,870.000,879.000,874.000,875.000,880.000
2588.471,880.000,900.000,900.000,888.000,879.000,872.000,893.000,883.000,878.000,902.000
2602.811,994.000,977.000,993.000,996.000,1003.000,978.000,974.000,992.000,987.000,978.000
2617.124,1047.000,1046.000,1037.000,1042.000,1032.000,1029.000,1035.000,1047.000,1033.000,1016.000
2631.414,996.000,1030.000,1006.000,1045.000,1040.000,1011.000,1015.000,1024.000,1010.000,1026.000
2645.678,1020.000,1013.000,1031.000,1022.000,1027.000,1054.000,1000.000,1021.000,1028.000,1030.000
2659.917,1042.000,1058.000,1040.000,1055.000,1059.000,1046.000,1052.000,1054.000,1061.000,1054.000
2674.131,1121.000,1134.000,1124.000,1114.000,1115.000,1116.000,1098.000,1120.000,1123.000,1119.000
2688.320,1274.000,1257.000,1226.000,1240.000,1256.000,1248.000,1238.000,1235.000,1220.000,1224.000
2702.483,1477.000,1498.000,1526.000,1510.000,1551.000,1491.000,1537.000,1497.000,1508.000,1502.000
2716.622,1662.000,1650.000,1653.000,1671.000,1692.000,1678.000,1690.000,1670.000,1617.000,1634.000
2730.736,1930.000,1916.000,1873.000,1890.000,1922.000,1927.000,1893.000,1888.000,1932.000,1905.000
2744.826,2190.000,2179.000,2212.000,2225.000,2195.000,2134.000,2165.000,2183.000,2154.000,2146.000
2758.891,2184.000,2148.000,2170.000,2140.000,2183.000,2173.000,2173.000,2198.000,2105.000,2152.000
2772.931,1741.000,1744.000,1793.000,1752.000,1707.000,1741.000,1794.000,1750.000,1735.000,1695.000
2786.946,1543.000,1531.000,1532.000,1531.000,1539.000,1505.000,1548.000,1515.000,1523.000,1502.000
2800.937,1519.000,1459.000,1472.000,1496.000,1473.000,1452.000,1473.000,1491.000,1478.000,1485.000
2814.904,1723.000,1725.000,1705.000,1763.000,1740.000,1727.000,1719.000,1706.000,1740.000,1720.000
2828.846,2486.000,2538.000,2556.000,2569.000,2571.000,2539.000,2563.000,2522.000,2542.000,2525.000
2842.764,3633.000,3553.000,3592.000,3580.000,3592.000,3615.000,3559.000,3544.000,3614.000,3557.000
2856.658,12585.000,12552.000,12614.000,12640.000,12451.000,12538.000,12533.000,12486.000,12545.000,12375.000
2870.526,19558.000,19730.000,19512.000,19698.000,19619.000,19662.000,19539.000,19648.000,19688.000,19689.000
2884.372,22212.000,22291.000,22418.000,22237.000,22420.000,22273.000,22299.000,22488.000,22271.000,22169.000
2898.194,20322.000,20548.000,20552.000,20386.000,20322.000,20472.000,20389.000,20446.000,20221.000,20497.000
2911.991,26418.000,26200.000,26213.000,26209.000,26259.000,26467.000,26313.000,26211.000,26187.000,26194.000
2925.765,21196.000,21212.000,21281.000,21152.000,21227.000,20973.000,21089.000,21038.000,20998.000,21081.000
2939.515,21954.000,22055.000,22042.000,21920.000,21891.000,21874.000,21819.000,21852.000,21881.000,21721.000
2953.239,13837.000,13942.000,13908.000,13829.000,14009.000,13826.000,13892.000,13779.000,13865.000,13888.000
2966.941,8772.000,8733.000,8784.000,8808.000,8806.000,8692.000,8726.000,8756.000,8779.000,8796.000
2980.620,5223.000,5221.000,5208.000,5280.000,5139.000,5116.000,5113.000,5190.000,5214.000,5179.000
2994.275,3069.000,2954.000,2967.000,2977.000,3007.000,2927.000,2993.000,3019.000,2943.000,2976.000
3007.906,2130.000,2151.000,2110.000,2140.000,2118.000,2100.000,2115.000,2096.000,2141.000,2303.000
3021.514,1700.000,1724.000,1672.000,1684.000,1723.000,1691.000,1699.000,1713.000,1669.000,1675.000
3035.097,1538.000,1552.000,1534.000,1548.000,1532.000,1518.000,1527.000,1503.000,1532.000,1537.000
3048.658,1414.000,1461.000,1462.000,1425.000,1435.000,1450.000,1450.000,1457.000,1453.000,1420.000
3062.196,1446.000,1449.000,1431.000,1453.000,1483.000,1445.000,1445.000,1463.000,1447.000,1456.000
3075.711,1467.000,1446.000,1445.000,1482.000,1446.000,1468.000,1448.000,1451.000,1479.000,1439.000
3089.202,1352.000,1353.000,1319.000,1363.000,1358.000,1344.000,1320.000,1356.000,1347.000,1365.000
3102.670,1228.000,1251.000,1223.000,1225.000,1242.000,1228.000,1214.000,1238.000,1226.000,1223.000
3116.114,1118.000,1096.000,1114.000,1101.000,1107.000,1119.000,1115.000,1099.000,1102.000,1134.000
3129.536,1011.000,1045.000,1027.000,1037.000,1018.000,1063.000,1036.000,1029.000,1014.000,1027.000
3142.935,987.000,998.000,1006.000,993.000,991.000,983.000,987.000,981.000,987.000,991.000
3156.311,979.000,987.000,967.000,956.000,953.000,966.000,960.000,965.000,959.000,960.000
3169.665,987.000,975.000,978.000,971.000,963.000,969.000,964.000,983.000,958.000,967.000
3182.995,1026.000,1034.000,1022.000,1045.000,1020.000,1019.000,1029.000,1031.000,1011.000,995.000
3196.302,1085.000,1440.000,1095.000,1085.000,1060.000,1073.000,1066.000,1076.000,1115.000,1060.000
3209.587,1137.000,1135.000,1134.000,1123.000,1150.000,1117.000,1107.000,1137.000,1102.000,1377.000
3222.849,1151.000,1154.000,1158.000,1173.000,1337.000,1173.000,1155.000,1181.000,1189.000,1164.000
3236.090,1288.000,1278.000,1279.000,1246.000,1288.000,1255.000,1261.000,1236.000,1263.000,1263.000
3249.307,1451.000,1465.000,1476.000,1462.000,1455.000,1509.000,1474.000,1466.000,1492.000,1482.000
3262.502,1769.000,1825.000,1791.000,1823.000,1816.000,1777.000,1804.000,1796.000,1781.000,1796.000
3275.674,2277.000,2312.000,2329.000,2300.000,2285.000,2298.000,2297.000,2282.000,2272.000,2280.000
3288.824,3203.000,3175.000,3277.000,3177.000,3193.000,3222.000,3177.000,3230.000,3184.000,3226.000
3301.952,5852.000,5867.000,5891.000,5903.000,5875.000,5874.000,5879.000,5872.000,5832.000,5822.000
3315.058,4031.000,3988.000,3941.000,4058.000,4060.000,4005.000,3998.000,3955.000,4033.000,3947.000
3328.142,2902.000,2877.000,2927.000,2921.000,2906.000,2883.000,2960.000,2886.000,2914.000,2948.000
3341.202,2078.000,2082.000,2061.000,2127.000,2125.000,2086.000,2094.000,2080.000,2066.000,2050.000
3354.242,1650.000,1655.000,1653.000,1660.000,1629.000,1619.000,1651.000,1626.000,1664.000,1620.000
3367.260,1392.000,1396.000,1384.000,1400.000,1376.000,1387.000,1388.000,1387.000,1381.000,1378.000
3380.256,1254.000,1224.000,1254.000,1226.000,1217.000,1222.000,1191.000,1228.000,1229.000,1241.000
3393.229,1150.000,1141.000,1154.000,1139.000,1123.000,1139.000,1110.000,1139.000,1130.000,1154.000
3406.182,1091.000,1069.000,1083.000,1071.000,1054.000,1081.000,1066.000,1059.000,1092.000,1096.000
3419.112,1053.000,1050.000,1042.000,1048.000,1059.000,1044.000,1052.000,1027.000,1043.000,1032.000
3432.019,1027.000,1009.000,1023.000,1031.000,1026.000,1021.000,1009.000,1033.000,1042.000,1016.000
3444.906,983.000,997.000,988.000,970.000,1001.000,981.000,1003.000,985.000,970.000,995.000
3457.771,962.000,979.000,974.000,976.000,978.000,973.000,993.000,965.000,966.000,995.000
3470.615,916.000,946.000,906.000,930.000,915.000,925.000,914.000,924.000,908.000,933.000
3483.438,887.000,892.000,889.000,890.000,892.000,884.000,887.000,882.000,887.000,886.000
3496.237,852.000,849.000,869.000,851.000,855.000,856.000,849.000,854.000,846.000,866.000
3509.017,845.000,844.000,847.000,836.000,818.000,839.000,856.000,839.000,858.000,832.000
3521.775,829.000,822.000,805.000,826.000,821.000,825.000,822.000,821.000,824.000,827.000
3534.512,805.000,813.000,822.000,814.000,822.000,827.000,802.000,810.000,812.000,813.000
3547.227,803.000,798.000,797.000,802.000,791.000,806.000,814.000,799.000,778.000,800.000
3559.922,794.000,787.000,779.000,785.000,775.000,799.000,801.000,788.000,773.000,770.000
3572.594,786.000,778.000,784.000,789.000,763.000,771.000,786.000,787.000,784.000,769.000
3585.246,760.000,776.000,773.000,785.000,789.000,769.000,792.000,782.000,780.000,775.000
3597.877,779.000,778.000,769.000,792.000,771.000,769.000,782.000,782.000,770.000,780.000
3610.488,773.000,780.000,782.000,783.000,778.000,780.000,787.000,767.000,780.000,768.000
3623.077,788.000,773.000,783.000,779.000,767.000,787.000,767.000,842.000,770.000,767.000
3635.646,794.000,781.000,789.000,782.000,781.000,787.000,791.000,794.000,791.000,794.000
3648.192,798.000,793.000,794.000,795.000,790.000,775.000,769.000,784.000,795.000,780.000
3660.719,799.000,807.000,807.000,794.000,801.000,797.000,796.000,806.000,798.000,799.000
3673.226,819.000,798.000,808.000,814.000,822.000,812.000,815.000,810.000,818.000,836.000
3685.711,821.000,824.000,819.000,817.000,823.000,828.000,823.000,829.000,823.000,808.000
3698.177,811.000,805.000,824.000,808.000,816.000,810.000,802.000,816.000,814.000,796.000
3710.621,820.000,805.000,815.000,827.000,821.000,808.000,811.000,815.000,822.000,824.000
3723.044,805.000,831.000,821.000,822.000,820.000,811.000,811.000,829.000,800.000,813.000
3735.447,823.000,837.000,817.000,808.000,809.000,821.000,818.000,818.000,819.000,819.000
3747.831,828.000,823.000,828.000,846.000,822.000,850.000,825.000,818.000,823.000,829.000
3760.193,844.000,846.000,843.000,847.000,843.000,854.000,842.000,848.000,827.000,846.000
3772.536,853.000,855.000,853.000,859.000,862.000,835.000,861.000,851.000,852.000,857.000
3784.858,882.000,873.000,872.000,884.000,895.000,863.000,883.000,863.000,867.000,870.000
3797.159,902.000,895.000,881.000,902.000,894.000,890.000,886.000,891.000,901.000,903.000
3809.441,930.000,928.000,933.000,926.000,925.000,924.000,918.000,917.000,923.000,943.000
3821.703,977.000,972.000,972.000,959.000,975.000,996.000,955.000,988.000,990.000,988.000
3833.945,1067.000,1045.000,1052.000,1052.000,1053.000,1063.000,1038.000,1046.000,1041.000,1054.000
3846.167,1238.000,1204.000,1209.000,1199.000,1209.000,1215.000,1175.000,1210.000,1201.000,1196.000
3849.829,1287.000,1303.000,1306.000,1287.000,1286.000,1307.000,1287.000,1273.000,1271.000,1312.000