Folder: Data/Raman (part 4)

File: 2022_11_26_Nylon6_532nm_Pol_6mW_750mm_600gv_0wn_iDus_10s_10accum_Pos1.csv
-1054.088,653.000,657.000,648.000,652.000,650.000,662.000,648.000,653.000,653.000,647.000
-1032.397,651.000,651.000,649.000,651.000,651.000,652.000,655.000,656.000,650.000,657.000
-1010.751,653.000,643.000,650.000,651.000,644.000,647.000,650.000,655.000,643.000,648.000
-989.154,646.000,652.000,651.000,652.000,653.000,648.000,650.000,655.000,647.000,648.000
-967.603,652.000,652.000,652.000,654.000,655.000,648.000,653.000,649.000,655.000,651.000
-946.100,657.000,654.000,649.000,662.000,660.000,658.000,651.000,653.000,645.000,650.000
-924.643,652.000,651.000,657.000,655.000,654.000,654.000,654.000,647.000,651.000,651.000
-903.233,654.000,656.000,656.000,656.000,655.000,652.000,657.000,663.000,652.000,651.000
-881.869,661.000,644.000,653.000,652.000,660.000,649.000,649.000,648.000,656.000,656.000
-860.552,651.000,654.000,649.000,658.000,654.000,654.000,653.000,653.000,649.000,653.000
-839.280,651.000,656.000,655.000,660.000,651.000,659.000,656.000,651.000,645.000,654.000
-818.055,655.000,662.000,656.000,645.000,662.000,650.000,654.000,649.000,651.000,655.000
-796.875,655.000,654.000,657.000,657.000,658.000,654.000,648.000,655.000,650.000,656.000
-775.742,656.000,655.000,649.000,659.000,656.000,653.000,654.000,654.000,658.000,656.000
-754.653,659.000,658.000,658.000,653.000,658.000,653.000,654.000,658.000,660.000,649.000
-733.610,653.000,652.000,652.000,649.000,645.000,655.000,656.000,650.000,653.000,650.000
-712.612,655.000,651.000,659.000,654.000,657.000,664.000,655.000,647.000,652.000,659.000
-691.659,647.000,649.000,652.000,652.000,652.000,652.000,658.000,654.000,654.000,650.000
-670.753,648.000,659.000,654.000,656.000,654.000,654.000,655.000,657.000,659.000,659.000
-649.889,659.000,650.000,653.000,650.000,650.000,651.000,655.000,654.000,651.000,655.000
-629.071,661.000,655.000,653.000,656.000,656.000,656.000,650.000,652.000,659.000,648.000
-608.297,660.000,654.000,653.000,656.000,648.000,653.000,654.000,656.000,650.000,652.000
-587.569,656.000,661.000,659.000,661.000,667.000,665.000,654.000,650.000,658.000,651.000
-566.883,660.000,654.000,654.000,662.000,659.000,660.000,654.000,661.000,660.000,660.000
-546.242,657.000,659.000,664.000,661.000,656.000,650.000,649.000,659.000,656.000,659.000
-525.644,654.000,655.000,659.000,662.000,658.000,656.000,662.000,659.000,658.000,658.000
-505.093,662.000,663.000,657.000,648.000,656.000,662.000,661.000,647.000,651.000,659.000
-484.583,655.000,657.000,653.000,654.000,662.000,657.000,659.000,660.000,659.000,658.000
-464.116,658.000,654.000,656.000,656.000,660.000,661.000,660.000,654.000,654.000,661.000
-443.693,656.000,662.000,659.000,652.000,666.000,652.000,660.000,661.000,653.000,663.000
-423.316,669.000,656.000,661.000,664.000,659.000,668.000,668.000,662.000,654.000,654.000
-402.979,657.000,659.000,667.000,653.000,659.000,659.000,662.000,662.000,663.000,658.000
-382.685,656.000,669.000,661.000,665.000,670.000,659.000,658.000,663.000,661.000,665.000
-362.434,665.000,670.000,674.000,669.000,668.000,663.000,657.000,671.000,664.000,669.000
-342.229,668.000,670.000,665.000,670.000,673.000,674.000,664.000,671.000,673.000,669.000
-322.063,672.000,676.000,671.000,674.000,679.000,668.000,673.000,667.000,679.000,672.000
-301.940,674.000,676.000,672.000,682.000,674.000,673.000,675.000,683.000,676.000,675.000
-281.859,678.000,688.000,689.000,689.000,689.000,687.000,683.000,696.000,688.000,687.000
-261.823,699.000,691.000,680.000,677.000,682.000,695.000,688.000,683.000,691.000,691.000
-241.826,704.000,700.000,705.000,703.000,703.000,710.000,693.000,698.000,702.000,703.000
-221.871,727.000,721.000,734.000,714.000,717.000,728.000,719.000,723.000,712.000,719.000
-201.959,742.000,733.000,733.000,734.000,735.000,738.000,734.000,729.000,743.000,741.000
-182.090,776.000,751.000,752.000,757.000,762.000,767.000,758.000,763.000,759.000,761.000
-162.260,833.000,821.000,816.000,819.000,816.000,835.000,826.000,816.000,823.000,820.000
-142.472,909.000,937.000,906.000,913.000,908.000,912.000,922.000,895.000,931.000,934.000
-122.724,1137.000,1133.000,1130.000,1109.000,1098.000,1128.000,1140.000,1126.000,1110.000,1125.000
-103.021,1908.000,1899.000,1838.000,1838.000,1860.000,1860.000,1852.000,1881.000,1891.000,1885.000
-83.356,2109.000,2086.000,2086.000,2074.000,2041.000,2091.000,2094.000,2081.000,2050.000,2036.000
-63.732,2355.000,2336.000,2289.000,2319.000,2316.000,2285.000,2261.000,2285.000,2322.000,2299.000
-44.149,2675.000,2589.000,2546.000,2611.000,2617.000,2611.000,2642.000,2563.000,2647.000,2592.000
-24.608,3015.000,2980.000,2907.000,2862.000,2940.000,3016.000,2934.000,2907.000,2900.000,2911.000
-5.106,3734.000,3663.000,3653.000,3694.000,3646.000,3575.000,3686.000,3703.000,3632.000,3606.000
14.356,4146.000,4156.000,4194.000,4172.000,4125.000,4124.000,4134.000,4132.000,4171.000,4072.000
33.777,3390.000,3365.000,3343.000,3267.000,3299.000,3267.000,3324.000,3279.000,3387.000,3258.000
53.157,3283.000,3275.000,3241.000,3201.000,3197.000,3238.000,3163.000,3208.000,3171.000,3224.000
72.498,2976.000,2997.000,3015.000,2993.000,2994.000,2962.000,2946.000,2958.000,2929.000,2950.000
91.800,2703.000,2733.000,2708.000,2763.000,2724.000,2747.000,2736.000,2725.000,2728.000,2710.000
111.061,2867.000,2783.000,2820.000,2855.000,2808.000,3786.000,2787.000,2805.000,2804.000,2864.000
130.281,1617.000,1601.000,1621.000,1569.000,1614.000,1618.000,1610.000,1593.000,1619.000,1606.000
149.464,1213.000,1209.000,1196.000,1192.000,1205.000,1193.000,1206.000,1185.000,1193.000,1196.000
168.607,1031.000,1049.000,1053.000,1036.000,1034.000,1049.000,1040.000,1056.000,1027.000,1048.000
187.711,951.000,947.000,960.000,953.000,938.000,941.000,950.000,937.000,948.000,947.000
206.774,898.000,878.000,870.000,860.000,870.000,888.000,897.000,867.000,869.000,873.000
225.800,861.000,848.000,867.000,844.000,854.000,855.000,860.000,870.000,843.000,854.000
244.787,827.000,826.000,812.000,826.000,821.000,816.000,822.000,832.000,825.000,811.000
263.735,786.000,791.000,798.000,791.000,795.000,787.000,802.000,795.000,777.000,793.000
282.643,779.000,788.000,754.000,775.000,776.000,770.000,775.000,769.000,771.000,770.000
301.513,779.000,779.000,763.000,777.000,773.000,771.000,769.000,764.000,757.000,759.000
320.346,742.000,764.000,751.000,749.000,745.000,757.000,747.000,751.000,741.000,754.000
339.140,739.000,747.000,743.000,739.000,734.000,746.000,747.000,739.000,740.000,736.000
357.894,741.000,740.000,745.000,736.000,723.000,726.000,735.000,741.000,739.000,731.000
376.612,728.000,722.000,723.000,722.000,730.000,717.000,727.000,718.000,730.000,719.000
395.292,717.000,707.000,713.000,718.000,711.000,709.000,711.000,722.000,703.000,719.000
413.934,714.000,712.000,703.000,699.000,697.000,699.000,710.000,709.000,709.000,707.000
432.536,717.000,732.000,711.000,722.000,711.000,714.000,715.000,715.000,723.000,714.000
451.103,702.000,714.000,706.000,715.000,699.000,695.000,699.000,697.000,692.000,705.000
469.633,695.000,696.000,701.000,695.000,702.000,690.000,699.000,687.000,694.000,699.000
488.124,706.000,704.000,698.000,695.000,707.000,699.000,705.000,711.000,696.000,701.000
506.577,721.000,708.000,694.000,711.000,706.000,707.000,711.000,693.000,708.000,704.000
524.994,708.000,715.000,718.000,719.000,700.000,721.000,711.000,714.000,719.000,707.000
543.375,736.000,733.000,731.000,720.000,719.000,726.000,726.000,732.000,720.000,721.000
561.718,708.000,702.000,701.000,701.000,697.000,697.000,702.000,696.000,698.000,694.000
580.023,749.000,751.000,745.000,753.000,730.000,755.000,760.000,743.000,756.000,751.000
598.293,748.000,751.000,744.000,747.000,744.000,748.000,744.000,740.000,740.000,739.000
616.526,740.000,735.000,736.000,730.000,733.000,737.000,727.000,720.000,740.000,733.000
634.723,723.000,722.000,735.000,717.000,734.000,725.000,721.000,727.000,727.000,724.000
652.881,715.000,707.000,712.000,705.000,712.000,705.000,709.000,717.000,720.000,723.000
671.005,709.000,711.000,714.000,722.000,715.000,704.000,710.000,713.000,705.000,701.000
689.093,711.000,712.000,724.000,715.000,711.000,710.000,710.000,719.000,712.000,716.000
707.145,722.000,722.000,724.000,724.000,730.000,735.000,718.000,729.000,734.000,725.000
725.159,738.000,722.000,733.000,729.000,723.000,717.000,730.000,721.000,733.000,723.000
743.139,738.000,738.000,730.000,730.000,743.000,730.000,736.000,738.000,731.000,744.000
761.084,735.000,730.000,738.000,728.000,737.000,726.000,735.000,716.000,733.000,735.000
778.992,726.000,742.000,733.000,736.000,728.000,729.000,727.000,731.000,727.000,733.000
796.864,732.000,732.000,723.000,739.000,739.000,718.000,719.000,729.000,744.000,730.000
814.701,749.000,738.000,735.000,740.000,729.000,736.000,727.000,735.000,741.000,732.000
832.504,779.000,777.000,779.000,773.000,781.000,776.000,777.000,762.000,763.000,770.000
850.271,777.000,804.000,787.000,789.000,793.000,790.000,780.000,783.000,798.000,774.000
868.001,805.000,796.000,782.000,792.000,790.000,793.000,789.000,784.000,775.000,797.000
885.698,825.000,823.000,813.000,823.000,830.000,832.000,808.000,812.000,810.000,813.000
903.360,827.000,817.000,803.000,845.000,812.000,827.000,827.000,808.000,828.000,802.000
920.988,892.000,888.000,888.000,891.000,884.000,890.000,884.000,885.000,887.000,879.000
938.579,936.000,916.000,904.000,909.000,915.000,882.000,907.000,903.000,920.000,910.000
943.850,872.000,875.000,889.000,866.000,861.000,873.000,891.000,891.000,881.000,880.000

File: 2022_11_26_Nylon6_532nm_Pol_6mW_750mm_600gv_977wn_iDus_100s_2accum_Pos1.csv
34.493,16754.000,16921.000
42.233,16946.000,17246.000
49.965,16905.000,17034.000
57.693,16867.000,17137.000
65.412,16815.000,16979.000
73.127,15713.000,15937.000
80.834,14707.000,14904.000
88.536,14868.000,15058.000
96.232,15004.000,15359.000
103.919,15517.000,15742.000
111.603,14461.000,14601.000
119.278,10782.000,10945.000
126.948,7604.000,7658.000
134.613,6091.000,6158.000
142.269,5150.000,5195.000
149.920,4263.000,4428.000
157.564,3862.000,3865.000
165.203,3516.000,3512.000
172.834,3217.000,3140.000
180.461,2883.000,2965.000
188.081,2711.000,2697.000
195.693,2473.000,2482.000
203.302,2350.000,2319.000
210.901,2279.000,2303.000
218.497,2214.000,2218.000
226.084,2127.000,2096.000
233.667,2050.000,2042.000
241.244,1874.000,1872.000
248.813,1795.000,1778.000
256.378,1727.000,1756.000
263.934,1663.000,1665.000
271.487,1554.000,1579.000
279.031,1600.000,1610.000
286.571,1642.000,1635.000
294.105,1604.000,1594.000
301.630,1526.000,1536.000
309.152,1441.000,1465.000
316.666,1405.000,1420.000
324.175,1364.000,1366.000
331.678,1299.000,1334.000
339.173,1289.000,1291.000
346.665,1305.000,1311.000
354.148,1258.000,1263.000
361.627,1323.000,1306.000
369.098,1315.000,1326.000
376.564,1151.000,1159.000
384.025,1097.000,1079.000
391.478,1102.000,1107.000
398.927,1045.000,1035.000
406.367,1051.000,1039.000
413.804,1041.000,1044.000
421.233,1048.000,1061.000
428.658,1153.000,1155.000
436.076,1060.000,1068.000
443.487,1051.000,1057.000
450.894,986.000,1023.000
458.292,982.000,977.000
465.687,977.000,969.000
473.076,983.000,981.000
480.457,974.000,982.000
487.834,1014.000,1008.000
495.203,1061.000,1031.000
502.568,1091.000,1078.000
509.925,1096.000,1078.000
517.278,1142.000,1126.000
524.626,1103.000,1126.000
531.965,1211.000,1228.000
539.300,1211.000,1215.000
546.628,987.000,1026.000
553.952,984.000,961.000
561.268,1030.000,1024.000
568.580,1155.000,1161.000
575.886,1424.000,1394.000
583.184,1437.000,1412.000
590.479,1381.000,1359.000
597.765,1403.000,1406.000
605.048,1368.000,1378.000
612.323,1298.000,1301.000
619.594,1293.000,1255.000
626.859,1265.000,1250.000
634.117,1207.000,1198.000
641.371,1166.000,1204.000
648.616,1113.000,1113.000
655.859,1072.000,1061.000
663.095,1055.000,1068.000
670.324,1061.000,1074.000
677.548,1083.000,1081.000
684.765,1085.000,1099.000
691.979,1111.000,1122.000
699.184,1182.000,1180.000
706.386,1252.000,1272.000
713.582,1256.000,1259.000
720.771,1194.000,1208.000
727.955,1272.000,1279.000
735.132,1318.000,1326.000
742.306,1298.000,1302.000
749.471,1216.000,1195.000
756.633,1242.000,1270.000
763.789,1404.000,1387.000
770.938,1373.000,1401.000
778.083,1223.000,1211.000
785.220,1161.000,1219.000
792.354,1168.000,1202.000
799.479,1247.000,1242.000
806.602,1259.000,1252.000
813.718,1315.000,1352.000
820.827,1464.000,1481.000
827.933,1641.000,1585.000
835.031,1741.000,1758.000
842.125,1774.000,1769.000
849.213,1649.000,1656.000
856.294,1633.000,1617.000
863.372,1688.000,1727.000
870.441,1819.000,1821.000
877.508,1937.000,1976.000
884.566,1980.000,1997.000
891.621,2027.000,2074.000
898.671,1995.000,2035.000
905.713,2128.000,2198.000
912.751,2441.000,2465.000
919.782,2804.000,2805.000
926.810,4049.000,4014.000
933.830,2574.000,2577.000
940.846,2085.000,2115.000
947.857,2202.000,2217.000
954.860,2103.000,2175.000
961.860,2132.000,2142.000
968.853,2196.000,2193.000
975.841,2042.000,2084.000
982.825,1933.000,1900.000
989.801,1732.000,1739.000
996.773,1938.000,1976.000
1003.738,1647.000,1675.000
1010.700,1629.000,1623.000
1017.654,1671.000,1652.000
1024.605,1720.000,1736.000
1031.550,2037.000,2077.000
1038.488,2203.000,2211.000
1045.422,2535.000,2532.000
1052.349,4492.000,4595.000
1059.273,5250.000,5314.000
1066.189,4577.000,4701.000
1073.102,4575.000,4677.000
1080.009,3591.000,3632.000
1086.909,3095.000,3074.000
1093.806,2827.000,2889.000
1100.695,3091.000,3103.000
1107.581,3039.000,3040.000
1114.462,4319.000,4319.000
1121.335,7245.000,7295.000
1128.205,2753.000,2733.000
1135.067,1562.000,1541.000
1141.927,1451.000,1481.000
1148.779,1668.000,1645.000
1155.627,2221.000,2249.000
1162.470,2790.000,2782.000
1169.306,2135.000,2146.000
1176.139,1687.000,1699.000
1182.964,1809.000,1791.000
1189.786,2327.000,2307.000
1196.601,2833.000,2974.000
1203.413,2271.000,2296.000
1210.219,2056.000,2091.000
1217.018,1938.000,1987.000
1223.814,2618.000,2539.000
1230.602,3085.000,3110.000
1237.387,2861.000,2797.000
1244.166,2759.000,2755.000
1250.940,3080.000,3149.000
1257.710,3554.000,3591.000
1264.472,4018.000,3968.000
1271.231,6066.000,6151.000
1277.983,5391.000,5517.000
1284.732,4233.000,4341.000
1291.473,5331.000,5365.000
1298.212,6424.000,6550.000
1304.945,5142.000,5181.000
1311.671,3477.000,3507.000
1318.393,2643.000,2633.000
1325.109,2317.000,2370.000
1331.822,2120.000,2130.000
1338.529,2182.000,2114.000
1345.229,2249.000,2247.000
1351.926,2563.000,2544.000
1358.616,2867.000,2938.000
1365.303,3150.000,3219.000
1371.982,3230.000,3327.000
1378.659,3191.000,3185.000
1385.330,2362.000,2408.000
1391.994,1848.000,1853.000
1398.656,1874.000,1868.000
1405.310,2785.000,2785.000
1411.961,3626.000,3602.000
1418.605,3959.000,4069.000
1425.245,6127.000,6244.000
1431.881,9250.000,9393.000
1438.510,11428.000,11468.000
1445.135,6042.000,6146.000
1451.754,4263.000,4293.000
1458.370,5113.000,5122.000
1464.980,4051.000,4129.000
1471.583,4142.000,4172.000
1478.184,2625.000,2587.000
1484.777,1627.000,1631.000
1491.368,1375.000,1377.000
1497.951,1306.000,1315.000
1504.531,1256.000,1252.000
1511.107,1236.000,1257.000
1517.675,1290.000,1302.000
1524.240,1354.000,1375.000
1530.799,1416.000,1481.000
1537.354,1421.000,1423.000
1543.903,1361.000,1354.000
1550.448,1283.000,1251.000
1556.988,1218.000,1201.000
1563.522,1150.000,1192.000
1570.052,1159.000,1142.000
1576.576,1124.000,1115.000
1583.097,1135.000,1125.000
1589.612,1193.000,1201.000
1596.121,1354.000,1395.000
1602.627,1458.000,1505.000
1609.126,1682.000,1689.000
1615.622,2264.000,2302.000
1622.112,4178.000,4135.000
1628.598,7225.000,7325.000
1635.079,4411.000,4403.000
1641.554,3034.000,3105.000
1648.025,2584.000,2685.000
1654.490,2405.000,2339.000
1660.952,1815.000,1801.000
1667.407,1445.000,1422.000
1673.859,1212.000,1239.000
1680.306,1091.000,1113.000
1686.746,1016.000,1023.000
1693.184,985.000,983.000
1699.615,969.000,970.000
1706.042,962.000,958.000
1712.465,951.000,955.000
1718.882,972.000,945.000
1725.295,951.000,931.000
1731.702,948.000,951.000
1738.105,973.000,953.000
1744.502,958.000,959.000
1750.897,943.000,947.000
1757.284,974.000,964.000
1763.669,974.000,978.000
1770.048,965.000,973.000
1776.421,981.000,969.000
1782.792,1019.000,1010.000
1789.155,1010.000,1028.000
1795.516,1036.000,1022.000
1801.872,1060.000,1084.000
1808.221,1126.000,1120.000
1814.567,1186.000,1177.000
1820.907,1239.000,1252.000
1825.661,1325.000,1298.000

File: 2023_07_03_CBD_Liquid_Near_Glass_Pos5_532nm_DePol_1mW_750mm_600gv_0wn_iDus_100s_3accum_50x_Mit_Pos_2.csv
-1054.088,3324.000
-1045.406,3414.000
-1036.731,3445.000
-1028.063,3439.000
-1019.403,3465.000
-1010.751,3610.000
-1002.107,3619.000
-993.469,3596.000
-984.840,3696.000
-976.218,3747.000
-967.603,3809.000
-958.996,3762.000
-950.397,3905.000
-941.805,3911.000
-933.220,4031.000
-924.643,4011.000
-916.073,4038.000
-907.511,4151.000
-898.956,4303.000
-890.409,4216.000
-881.869,4254.000
-873.336,4311.000
-864.811,4480.000
-856.293,4412.000
-847.783,4462.000
-839.280,4599.000
-830.784,4671.000
-822.296,4629.000
-813.815,4683.000
-805.341,4875.000
-796.875,4913.000
-788.416,4894.000
-779.964,4929.000
-771.520,5110.000
-763.083,5173.000
-754.653,5135.000
-746.230,5154.000
-737.815,5319.000
-729.407,5462.000
-721.007,5322.000
-712.612,5380.000
-704.227,5518.000
-695.846,5693.000
-687.475,5558.000
-679.109,5739.000
-670.753,5898.000
-662.401,5978.000
-654.059,5824.000
-645.722,5939.000
-637.394,6192.000
-629.071,6149.000
-620.757,6107.000
-612.448,6257.000
-604.149,6456.000
-595.854,6442.000
-587.569,6413.000
-579.289,6597.000
-571.017,6715.000
-562.751,6656.000
-554.494,6617.000
-546.242,6892.000
-537.999,6912.000
-529.761,6932.000
-521.532,6955.000
-513.308,7229.000
-505.093,7126.000
-496.883,7228.000
-488.682,7310.000
-480.486,7437.000
-472.299,7452.000
-464.116,7450.000
-455.943,7575.000
-447.775,7644.000
-439.616,7576.000
-431.461,7786.000
-423.316,7978.000
-415.175,7899.000
-407.043,7842.000
-398.916,8208.000
-390.799,8279.000
-382.685,7961.000
-374.581,8256.000
-366.482,8533.000
-358.391,8408.000
-350.305,8371.000
-342.229,8781.000
-334.156,8769.000
-326.093,8646.000
-318.035,8831.000
-309.985,9060.000
-301.940,8888.000
-293.904,8938.000
-285.872,9292.000
-277.850,9316.000
-269.832,9111.000
-261.823,9392.000
-253.818,9586.000
-245.822,9692.000
-237.831,9818.000
-229.849,10079.000
-221.871,9978.000
-213.903,9790.000
-205.938,10212.000
-197.983,10264.000
-190.032,10031.000
-182.090,10301.000
-174.152,10657.000
-166.223,10543.000
-158.298,10517.000
-150.383,10946.000
-142.472,10882.000
-134.569,10984.000
-126.671,11609.000
-118.782,11883.000
-110.897,12084.000
-103.021,13014.000
-95.149,13829.000
-87.286,14147.000
-79.427,14916.000
-71.577,16022.000
-63.732,16201.000
-55.895,16914.000
-48.062,18386.000
-40.239,19166.000
-32.419,20151.000
-24.608,22928.000
-16.801,25240.000
-9.004,26510.000
-1.210,13747.000
6.575,3307.000
14.356,26368.000
22.128,29162.000
29.896,27439.000
37.655,24221.000
45.410,22864.000
53.157,22263.000
60.899,20730.000
68.633,20024.000
76.362,20067.000
84.083,18907.000
91.800,18365.000
99.508,18150.000
107.212,17263.000
114.907,16017.000
122.599,15823.000
130.281,15078.000
137.960,14467.000
145.630,14556.000
153.296,14256.000
160.954,13832.000
168.607,14066.000
176.252,14233.000
183.893,14069.000
191.526,14327.000
199.154,14239.000
206.774,14204.000
214.390,14482.000
221.998,14595.000
229.601,14397.000
237.196,14743.000
244.787,15248.000
252.370,14973.000
259.948,15111.000
267.518,14891.000
275.085,14658.000
282.643,15165.000
290.196,15105.000
297.742,14661.000
305.283,15070.000
312.817,15216.000
320.346,14883.000
327.867,15380.000
335.384,15455.000
342.893,15141.000
350.398,15469.000
357.894,15408.000
365.387,15212.000
372.871,15635.000
380.351,15481.000
387.824,15321.000
395.292,15819.000
402.752,15639.000
410.208,15559.000
417.656,15937.000
425.100,15640.000
432.536,15665.000
439.969,16020.000
447.393,15855.000
454.813,15956.000
462.225,16419.000
469.633,16038.000
477.033,16217.000
484.429,16587.000
491.817,15991.000
499.201,16407.000
506.577,16391.000
513.949,16192.000
521.314,16758.000
528.674,17011.000
536.026,16483.000
543.375,16892.000
550.715,16842.000
558.052,16650.000
565.381,16899.000
572.706,16383.000
580.023,16704.000
587.336,17158.000
594.641,16821.000
601.943,17169.000
609.236,17166.000
616.526,16768.000
623.808,17247.000
631.086,17265.000
638.356,17071.000
645.623,17625.000
652.881,17246.000
660.136,17312.000
667.383,17607.000
674.626,17134.000
681.862,17442.000
689.093,17473.000
696.317,17356.000
703.537,17822.000
710.750,17576.000
717.958,17606.000
725.159,18153.000
732.356,17910.000
739.546,18024.000
746.731,18262.000
753.909,17914.000
761.084,18381.000
768.250,18223.000
775.413,18210.000
782.568,18644.000
789.720,18439.000
796.864,18428.000
804.004,18689.000
811.136,18262.000
818.265,18548.000
825.386,18653.000
832.504,18603.000
839.614,19025.000
846.720,18716.000
853.819,18828.000
860.914,19035.000
868.001,18780.000
875.085,19087.000
882.161,19215.000
889.234,19135.000
896.299,19695.000
903.360,19165.000
910.414,19204.000
917.465,19487.000
924.508,19179.000
931.547,19567.000
938.579,19562.000
943.850,19923.000