Folder: Data/Raman

Note: Raman/2022_11_21_C6D6_532nm_Pol_12mW_750mm_600gv_3000wn_iDus_1s_5accum_spec.txt
Green
12.0mW
Andor750 (3)
Polarized

Note: Raman/2022_12_20_CBD_532nm_Pol_28mW_750mm_600gv_3200wn_iDus_10s_3accum_50x_Mit_Pos_1_spec.txt
Green
28.0mW
Andor750 (3)
Polarized

Note: Raman/2022_12_20_Qtz_532nm_UnPol_50mW_750mm_600gv_0wn_iDus_1s_1accum_50x_Mit_spec.txt
Green
0.4uW
Andor750 (3)
Unpolarized

Note: Raman/2023_07_03_Glass_Near_CBD_Liquid_Pos5_532nm_Pol_47uW_750mm_600gv_0wn_iDus_100s_3accum_50x_Mit_Pos_1_spec.txt
Green
47.0uW
Andor750 (3)
Polarized

Note: Raman/2023_07_04_CBD_Xtal_532nm_Pol_750uW_750mm_600gv_977wn_iDus_100s_10accum_50x_Mit_Pos_6_spec.txt
Green
750.0uW
Andor750 (3)
Polarized

Note: Raman/2023_07_04_THC_Liquid_Pos13_532nm_Pol_1mW_750mm_600gv_977wn_iDus_30s_3accum_50x_Mit_spec.txt
Green
7.7uW
Andor750 (3)
Polarized

Note: Raman/2023_07_05_CBG_Powder_Pos9_532nm_UnPol_230uW_750mm_600gv_977wn_iDus_100s_3accum_50x_Mit_Pos2_spec.txt
Green
230.0uW
Andor750 (3)
Unpolarized

Note: Raman/2025_06_07_Felodipine_50X_532nm_750uW_Kymera328_600gv_0wn_3accum_1sec_UnPol_spec.txt
532 nm
750.0uW
Kymera 328
Unpolarized

Note: Raman/2025_06_07_Felodipine_Amorphous_After_ssNMR_50X_532nm_230uW_Kymera328_600gv_2000wn_3accum_30sec_DePol_spec.txt
532 nm
230.0uW
Kymera 328
Depolarized

Note: Raman/2025_06_07_Quartz_Std_50X_532nm_50mW_Kymera328_600gv_0wn_3accum_1sec_Pol_spec.txt
532 nm
50.0mW
Kymera 328
Polarized

Note: Raman/2025_06_12_aFEL_50X_532nm_230uW_Andor750_600gv_3300wn_3accum_60sec_UnPol_spec.txt
532 nm
230.0uW
Andor 750
Unpolarized

Note: Raman/Quartz_355nm_full power_spec.txt
UV
20.10 mW
Andor750 (3)
Unpolarized

Note: Raman/ReadMe
Raman Data collected by the Yarger Research Lab.

File: 2022_11_26_Hagfish_Film_Unstreched_532nm_DePol_6mW_750mm_600gv_1200wn_iDus_100s_10accum_Pos2.csv
282.050,1549.000,1461.000,1458.000,1392.000,1375.000,1400.000,1363.000,1327.000,1327.000,1300.000
302.749,1562.000,1470.000,1451.000,1353.000,1380.000,5052.000,1360.000,1326.000,1264.000,1272.000
323.404,1542.000,1466.000,1461.000,1422.000,1376.000,1355.000,1378.000,1313.000,1276.000,1247.000
344.011,1554.000,1494.000,1418.000,1422.000,1385.000,1356.000,1377.000,1326.000,1280.000,1270.000
364.574,1502.000,1441.000,1455.000,1387.000,1389.000,1316.000,1329.000,1283.000,1252.000,1237.000
385.089,1544.000,1491.000,1423.000,1434.000,1386.000,1374.000,1375.000,1299.000,1274.000,1254.000
405.560,1550.000,1500.000,1483.000,1413.000,1415.000,1371.000,1392.000,1323.000,1303.000,1279.000
425.984,1570.000,1516.000,1481.000,1459.000,1430.000,1406.000,1401.000,1366.000,1301.000,1247.000
446.363,1563.000,1522.000,1479.000,1455.000,1406.000,1369.000,1416.000,1335.000,1313.000,1295.000
466.698,1630.000,1514.000,1521.000,1475.000,1418.000,1397.000,1402.000,1378.000,1303.000,1300.000
486.987,1678.000,1596.000,1545.000,1524.000,1485.000,1436.000,1494.000,1379.000,1348.000,1320.000
507.232,1708.000,1656.000,1524.000,1502.000,1467.000,1490.000,1471.000,1415.000,1362.000,1333.000
527.431,1730.000,1688.000,1566.000,1541.000,1507.000,1458.000,1498.000,1434.000,1362.000,1364.000
547.586,1736.000,1635.000,1612.000,1560.000,1515.000,1477.000,1483.000,1458.000,1386.000,1361.000
567.697,1780.000,1704.000,1635.000,1593.000,1515.000,1536.000,1506.000,1446.000,1416.000,1913.000
587.763,1791.000,1711.000,1663.000,1609.000,1584.000,1601.000,1566.000,1491.000,1385.000,1400.000
607.787,1852.000,1725.000,1725.000,1641.000,1572.000,1565.000,1604.000,1489.000,1447.000,1406.000
627.764,1819.000,1785.000,1695.000,1633.000,1601.000,1588.000,1594.000,1505.000,1458.000,1463.000
647.700,1892.000,1813.000,1743.000,1712.000,1627.000,1624.000,1660.000,1579.000,1529.000,1456.000
667.590,1904.000,1844.000,1781.000,1689.000,1699.000,1644.000,1659.000,1591.000,1524.000,1445.000
687.436,1941.000,1826.000,1763.000,1727.000,1683.000,1675.000,1624.000,1542.000,1491.000,1492.000
707.241,1967.000,1879.000,1811.000,1812.000,1677.000,1681.000,1693.000,1598.000,1496.000,1489.000
727.001,1981.000,1956.000,1832.000,1740.000,1732.000,1697.000,1684.000,1632.000,1563.000,1513.000
746.719,2031.000,1944.000,1850.000,1812.000,1778.000,1731.000,1754.000,1642.000,1595.000,1542.000
766.393,2018.000,1963.000,1911.000,1830.000,1785.000,1733.000,1760.000,1677.000,1615.000,1574.000
786.024,2032.000,1962.000,1879.000,1820.000,1734.000,1743.000,1730.000,1608.000,1603.000,1562.000
805.614,2023.000,1953.000,1939.000,1833.000,1774.000,1751.000,1805.000,1630.000,1558.000,1547.000
825.159,2128.000,2029.000,1959.000,1878.000,1857.000,1810.000,1790.000,1709.000,1663.000,1638.000
844.665,2147.000,2038.000,1936.000,1837.000,1811.000,1799.000,1791.000,1749.000,1656.000,1579.000
864.125,2149.000,1972.000,1951.000,1860.000,1847.000,1809.000,1808.000,1730.000,1638.000,1617.000
883.546,2205.000,2081.000,2015.000,1948.000,1876.000,1817.000,1838.000,1748.000,1683.000,1627.000
902.923,2184.000,2141.000,2018.000,1935.000,1934.000,1894.000,1895.000,1776.000,1724.000,1687.000
922.257,2216.000,2124.000,2079.000,1972.000,1943.000,1888.000,1883.000,1836.000,1681.000,1659.000
941.552,2232.000,2154.000,2123.000,2006.000,1960.000,1941.000,1964.000,1843.000,1776.000,1690.000
960.804,2256.000,2210.000,2098.000,2025.000,2001.000,1980.000,1968.000,1851.000,1805.000,1739.000
980.016,2305.000,2209.000,2143.000,2021.000,1963.000,1910.000,1933.000,1855.000,1808.000,1679.000
999.184,2410.000,2257.000,2234.000,2098.000,2035.000,2066.000,2043.000,1899.000,1841.000,1788.000
1018.312,2424.000,2270.000,2189.000,2065.000,2069.000,2053.000,2023.000,1944.000,1830.000,1807.000
1037.400,2429.000,2342.000,2199.000,2099.000,2125.000,2064.000,2075.000,1993.000,1847.000,1844.000
1056.446,2453.000,2339.000,2263.000,2211.000,2125.000,2089.000,2117.000,1988.000,1892.000,1835.000
1075.452,2501.000,2408.000,2312.000,2253.000,2182.000,2091.000,2199.000,1993.000,1974.000,2751.000
1094.416,2489.000,2333.000,2215.000,2204.000,2122.000,2091.000,2051.000,2015.000,1915.000,1845.000
1113.341,2545.000,2393.000,2326.000,2187.000,2111.000,2108.000,2186.000,1991.000,1962.000,1869.000
1132.224,2530.000,2379.000,2270.000,2188.000,2153.000,2120.000,2112.000,1979.000,1911.000,1834.000
1151.067,2522.000,2330.000,2258.000,2226.000,2167.000,2082.000,2140.000,2029.000,1931.000,1928.000
1169.872,2554.000,2426.000,2354.000,2262.000,2174.000,2168.000,2147.000,2058.000,1967.000,1912.000
1188.634,2635.000,2421.000,2372.000,2251.000,2226.000,2154.000,2144.000,2079.000,1939.000,1903.000
1207.359,2697.000,2492.000,2445.000,2401.000,2289.000,2268.000,2220.000,2180.000,2097.000,2032.000
1226.041,2929.000,2783.000,2631.000,2571.000,2571.000,2503.000,2481.000,2373.000,2223.000,2182.000
1244.686,2873.000,2754.000,2651.000,2597.000,2588.000,2463.000,2508.000,2375.000,2265.000,2200.000
1263.290,2834.000,2707.000,2586.000,2521.000,2438.000,2436.000,2397.000,2328.000,2220.000,2139.000
1281.854,2884.000,2736.000,2578.000,2579.000,2507.000,2466.000,2424.000,2321.000,2230.000,2219.000
1300.381,2891.000,2768.000,2631.000,2573.000,2483.000,2415.000,2463.000,2291.000,2287.000,2197.000
1318.867,2982.000,2819.000,2652.000,2579.000,2563.000,2516.000,2478.000,2409.000,2273.000,2236.000
1337.316,3070.000,2885.000,2799.000,2687.000,2624.000,2593.000,2550.000,2455.000,2391.000,2312.000
1355.724,2801.000,2642.000,2562.000,2480.000,2385.000,2386.000,2373.000,2260.000,2198.000,2115.000
1374.093,2739.000,2667.000,2526.000,2451.000,2360.000,2348.000,2310.000,2239.000,2133.000,2041.000
1392.425,2744.000,2622.000,2524.000,2508.000,2380.000,2352.000,2335.000,2253.000,2142.000,2019.000
1410.717,2796.000,2667.000,2583.000,2434.000,2423.000,2392.000,2410.000,2302.000,2183.000,2085.000
1428.973,3110.000,2933.000,2840.000,2738.000,2685.000,2656.000,2596.000,2499.000,2405.000,2369.000
1447.188,3255.000,3148.000,2972.000,2919.000,2871.000,2805.000,2804.000,2588.000,2540.000,2507.000
1465.367,2880.000,2766.000,2609.000,2580.000,2549.000,2446.000,2537.000,2379.000,2265.000,2176.000
1483.506,2730.000,2541.000,2448.000,2347.000,2299.000,2265.000,2223.000,2120.000,2025.000,1939.000
1501.607,2694.000,2513.000,2387.000,2291.000,2259.000,2196.000,2232.000,2063.000,2033.000,1948.000
1519.672,2682.000,2578.000,2464.000,2383.000,2297.000,2269.000,2247.000,2151.000,2013.000,1982.000
1537.698,2725.000,2738.000,2458.000,2364.000,2303.000,2302.000,2259.000,2128.000,2030.000,1975.000
1555.688,2804.000,2651.000,2546.000,2448.000,2372.000,2388.000,2348.000,2261.000,2130.000,2048.000
1573.638,2776.000,2634.000,2547.000,2434.000,2375.000,2313.000,2329.000,2192.000,2083.000,2055.000
1591.553,2873.000,2705.000,2590.000,2490.000,2470.000,2371.000,2385.000,2279.000,2107.000,2076.000
1609.429,2867.000,2777.000,2590.000,2551.000,2461.000,2442.000,2463.000,2302.000,2246.000,2156.000
1627.268,2814.000,2672.000,2548.000,2429.000,2366.000,2348.000,2376.000,2198.000,2108.000,2052.000
1645.072,2993.000,2797.000,2662.000,2586.000,2552.000,2427.000,2446.000,2684.000,2286.000,2216.000
1662.837,3272.000,3004.000,2927.000,2788.000,2779.000,2677.000,2706.000,2578.000,2455.000,2422.000
1680.567,2859.000,2731.000,2580.000,2484.000,2438.000,2375.000,2396.000,2239.000,2137.000,2073.000
1698.259,2699.000,2537.000,2461.000,2352.000,2250.000,2183.000,2194.000,2162.000,2030.000,1949.000
1715.914,2722.000,2606.000,2439.000,2343.000,2301.000,2245.000,2256.000,2078.000,2034.000,2062.000
1733.534,2630.000,2522.000,2407.000,2322.000,2255.000,2222.000,2211.000,2078.000,1989.000,1887.000
1751.116,2721.000,2514.000,2427.000,2337.000,2294.000,2255.000,2258.000,2082.000,1957.000,1952.000
1768.664,2655.000,2575.000,2441.000,2299.000,2215.000,2218.000,2226.000,2123.000,1994.000,1916.000
1786.174,2676.000,2527.000,2435.000,2340.000,2220.000,2239.000,2219.000,2070.000,1993.000,1955.000
1803.649,2749.000,2584.000,2497.000,2370.000,2281.000,2287.000,2222.000,2107.000,2031.000,1934.000
1821.089,2725.000,2594.000,2488.000,2381.000,2303.000,2285.000,2228.000,2116.000,2005.000,1983.000
1838.491,2797.000,2617.000,2522.000,2414.000,2291.000,2275.000,2284.000,2138.000,2018.000,1959.000
1855.860,2776.000,2646.000,2486.000,2391.000,2299.000,2265.000,2265.000,2121.000,2055.000,1974.000
1873.191,2827.000,2636.000,2513.000,2402.000,2331.000,2328.000,2264.000,2175.000,2056.000,1973.000
1890.489,2769.000,2642.000,2545.000,2391.000,2363.000,2279.000,2296.000,2127.000,2053.000,1989.000
1907.749,2855.000,2680.000,2555.000,2475.000,2395.000,2349.000,2279.000,2263.000,2064.000,2030.000
1924.974,2831.000,2676.000,2556.000,2478.000,2381.000,2369.000,2331.000,2186.000,2039.000,2038.000
1942.166,2868.000,2720.000,2884.000,2470.000,2414.000,2347.000,2403.000,2241.000,2127.000,2053.000
1959.322,2993.000,2754.000,2661.000,2549.000,2436.000,2387.000,2414.000,2295.000,2174.000,2082.000
1976.444,3012.000,2813.000,2669.000,2591.000,2548.000,2481.000,2409.000,2323.000,2206.000,2152.000
1993.529,3022.000,2888.000,2736.000,2658.000,2546.000,2529.000,2539.000,2352.000,2267.000,2186.000
2010.582,3133.000,2987.000,2878.000,2771.000,2642.000,2560.000,2616.000,2423.000,2334.000,2294.000
2027.598,3327.000,3233.000,3051.000,2942.000,2875.000,2826.000,2785.000,2686.000,2612.000,2486.000

File: 2022_11_26_Hagfish_Film_Unstreched_532nm_Pol_6mW_750mm_600gv_2250wn_iDus_100s_10accum_Pos2.csv
1443.187,1773.000,1738.000,1755.000,1714.000,1647.000,1642.000,1571.000,1577.000,1546.000,1538.000
1461.321,2147.000,2015.000,2001.000,1988.000,1949.000,1900.000,1888.000,1836.000,1850.000,1854.000
1479.418,1968.000,1946.000,1909.000,1904.000,1844.000,1801.000,1805.000,1749.000,1740.000,1729.000
1497.476,1811.000,1764.000,1690.000,1699.000,1631.000,1619.000,1601.000,1623.000,1559.000,1537.000
1515.497,1709.000,1646.000,1617.000,1528.000,1526.000,1479.000,1470.000,1418.000,1446.000,1437.000
1533.482,1727.000,1672.000,1621.000,1582.000,1517.000,1489.000,1487.000,1457.000,1431.000,1426.000
1551.428,1758.000,1710.000,1679.000,1609.000,1591.000,1591.000,1529.000,1500.000,1531.000,1448.000
1569.337,1886.000,1843.000,1734.000,1712.000,1665.000,1641.000,1616.000,1625.000,1605.000,1559.000
1587.209,1894.000,1780.000,1767.000,1755.000,1653.000,1628.000,1594.000,1600.000,1566.000,1529.000
1605.043,1875.000,1819.000,1758.000,1678.000,1655.000,1673.000,1631.000,1569.000,1570.000,1509.000
1622.841,2070.000,1903.000,1919.000,1852.000,1842.000,1762.000,1786.000,1711.000,1715.000,1640.000
1640.601,2058.000,1960.000,1895.000,1888.000,1787.000,1812.000,1785.000,1756.000,1738.000,1682.000
1658.326,2357.000,2310.000,2206.000,2201.000,2139.000,2106.000,2055.000,2054.000,2024.000,1995.000
1676.013,3159.000,3062.000,3042.000,2986.000,2950.000,2970.000,2856.000,2845.000,2858.000,2820.000
1693.664,2718.000,2702.000,2595.000,2519.000,2533.000,2431.000,2368.000,2386.000,2404.000,2384.000
1711.281,2115.000,2006.000,1950.000,1862.000,1861.000,1835.000,1770.000,1779.000,1710.000,1721.000
1728.859,1884.000,1774.000,1720.000,1694.000,1603.000,1578.000,1547.000,1515.000,1489.000,1502.000
1746.401,1799.000,1715.000,1660.000,1614.000,1578.000,1538.000,1500.000,1469.000,1428.000,1441.000
1763.908,1790.000,1696.000,1641.000,1601.000,1505.000,1473.000,1457.000,1456.000,1428.000,1401.000
1781.378,1722.000,1687.000,1615.000,1562.000,1516.000,1496.000,1490.000,1445.000,1421.000,1406.000
1798.813,1734.000,1646.000,1815.000,1583.000,1526.000,1492.000,1473.000,1423.000,1417.000,1384.000
1816.211,1791.000,1713.000,1654.000,1610.000,1509.000,1536.000,1476.000,1449.000,1431.000,1392.000
1833.575,1844.000,1733.000,1682.000,1628.000,1567.000,1522.000,1493.000,1483.000,1406.000,1422.000
1850.903,1875.000,1739.000,1649.000,1655.000,1533.000,1540.000,1526.000,1466.000,1431.000,1432.000
1868.197,1865.000,1760.000,1709.000,1642.000,1611.000,1557.000,1516.000,1456.000,1466.000,1461.000
1885.454,1860.000,1787.000,1739.000,1638.000,1600.000,1580.000,1542.000,1484.000,1457.000,1458.000
1902.676,1866.000,1792.000,1719.000,1660.000,1627.000,1574.000,1556.000,1506.000,1483.000,1436.000
1919.863,1868.000,1774.000,1716.000,1696.000,1602.000,1559.000,1530.000,1483.000,1482.000,1416.000
1937.015,1868.000,1791.000,1717.000,1649.000,1649.000,1566.000,1524.000,1499.000,1490.000,1452.000
1954.132,1903.000,1810.000,1729.000,1708.000,1632.000,1581.000,1581.000,1531.000,1482.000,1463.000
1971.215,1881.000,1812.000,1759.000,1718.000,1651.000,1611.000,1563.000,1531.000,1513.000,1475.000
1988.263,1954.000,1801.000,1780.000,1731.000,1691.000,1561.000,1572.000,1550.000,1495.000,1508.000
2005.276,1981.000,1818.000,1765.000,1710.000,1645.000,1632.000,1574.000,1533.000,1498.000,1458.000
2022.257,1915.000,1858.000,1791.000,1694.000,1642.000,1603.000,1573.000,1583.000,1503.000,1514.000
2039.202,1957.000,1855.000,1821.000,1737.000,1656.000,1626.000,1611.000,1547.000,1538.000,1490.000
2056.112,1956.000,1850.000,1770.000,1736.000,1662.000,1620.000,1577.000,1547.000,1524.000,1487.000
2072.988,1986.000,1882.000,1803.000,1756.000,1692.000,1655.000,1588.000,1581.000,1525.000,1490.000
2089.831,1952.000,1857.000,1800.000,1748.000,1718.000,1638.000,1636.000,1585.000,1556.000,1526.000
2106.639,1992.000,1873.000,1799.000,1735.000,1700.000,1663.000,1596.000,1577.000,1569.000,1544.000
2123.414,1994.000,1895.000,1843.000,1771.000,1711.000,1672.000,1666.000,1599.000,1579.000,1531.000
2140.155,1988.000,1863.000,1851.000,1780.000,1696.000,1670.000,1666.000,1612.000,1577.000,1520.000
2156.863,1975.000,1898.000,1808.000,1762.000,1700.000,1643.000,1607.000,1546.000,1542.000,1547.000
2173.538,1944.000,1907.000,1826.000,1763.000,1707.000,1650.000,1626.000,1614.000,1550.000,1522.000
2190.179,1964.000,1871.000,1768.000,1788.000,1705.000,1656.000,1645.000,1568.000,1561.000,1559.000
2206.786,1950.000,1860.000,1809.000,1708.000,1675.000,1654.000,1602.000,1557.000,1563.000,1550.000
2223.360,1952.000,1905.000,1849.000,1819.000,1667.000,1687.000,1640.000,1604.000,1551.000,1559.000
2239.901,1959.000,1898.000,1834.000,1748.000,1715.000,1652.000,1587.000,1592.000,1562.000,1546.000
2256.409,2014.000,1896.000,1853.000,1804.000,1724.000,1661.000,1661.000,1608.000,1594.000,1554.000
2272.885,2060.000,1924.000,1835.000,1815.000,1719.000,1697.000,1680.000,1618.000,1600.000,1563.000
2289.327,2026.000,1944.000,1835.000,1793.000,1727.000,1706.000,1643.000,1605.000,1599.000,1561.000
2305.737,1999.000,1940.000,1867.000,1803.000,1715.000,1694.000,1615.000,1637.000,1616.000,1572.000
2322.114,1994.000,1932.000,1851.000,1839.000,1733.000,1706.000,1696.000,1604.000,1599.000,1539.000
2338.460,2088.000,1956.000,1907.000,1800.000,1731.000,1704.000,1659.000,1610.000,1625.000,1595.000
2354.772,2019.000,1967.000,1878.000,1861.000,1739.000,1683.000,1662.000,1585.000,1604.000,1582.000
2371.052,2075.000,1976.000,1930.000,1835.000,1770.000,1737.000,1694.000,1632.000,1614.000,1605.000
2387.300,2086.000,1972.000,1884.000,1848.000,1814.000,1774.000,1695.000,1668.000,1666.000,1607.000
2403.515,2085.000,1988.000,1913.000,1841.000,1761.000,1723.000,1723.000,1678.000,1631.000,1582.000
2419.699,2061.000,1973.000,1874.000,1827.000,1763.000,1753.000,1701.000,1680.000,1663.000,1580.000
2435.851,2121.000,1980.000,1915.000,1849.000,1784.000,1739.000,1676.000,1627.000,1590.000,1565.000
2451.970,2111.000,1960.000,1922.000,1850.000,1745.000,1743.000,1716.000,1646.000,1616.000,1611.000
2468.059,2104.000,2013.000,1952.000,1841.000,1825.000,1731.000,1717.000,1676.000,1658.000,1626.000
2484.117,2146.000,2083.000,1910.000,1894.000,1816.000,1762.000,1747.000,1672.000,1645.000,1644.000
2500.142,2106.000,2019.000,1933.000,1899.000,1827.000,1728.000,1720.000,1723.000,1672.000,1633.000
2516.135,2105.000,2028.000,1945.000,1834.000,1780.000,1735.000,1738.000,1691.000,1662.000,1600.000
2532.097,2086.000,2017.000,1949.000,1888.000,1828.000,1740.000,1713.000,1707.000,1681.000,1615.000
2548.028,2195.000,2050.000,1990.000,1903.000,1826.000,1774.000,1724.000,1707.000,1656.000,1645.000
2563.928,2179.000,2082.000,2007.000,1951.000,1875.000,1836.000,1805.000,1761.000,1701.000,1699.000
2579.796,2197.000,2123.000,2080.000,1950.000,1915.000,1847.000,1774.000,1774.000,1751.000,1695.000
2595.634,2174.000,2124.000,1997.000,1961.000,1895.000,1864.000,1778.000,1771.000,1728.000,1681.000
2611.440,2258.000,2117.000,1972.000,1959.000,1894.000,1844.000,1812.000,1795.000,1770.000,1720.000
2627.216,2283.000,2173.000,2051.000,2076.000,1972.000,1936.000,1885.000,1797.000,1821.000,1763.000
2642.963,2319.000,2142.000,2112.000,2063.000,1941.000,1921.000,1897.000,1855.000,1839.000,1785.000
2658.677,2270.000,2197.000,2136.000,2019.000,1968.000,1971.000,1865.000,1817.000,1791.000,1755.000
2674.361,2277.000,2221.000,2125.000,2060.000,2007.000,1910.000,1903.000,1871.000,1815.000,1802.000
2690.015,2354.000,2264.000,2160.000,2090.000,2042.000,1993.000,1969.000,1873.000,1880.000,1848.000
2705.638,2478.000,2313.000,2200.000,2223.000,2135.000,2041.000,2026.000,1962.000,1954.000,1915.000
2721.231,2506.000,2390.000,2301.000,2284.000,2204.000,2167.000,2115.000,2042.000,1978.000,1995.000
2736.793,2636.000,2484.000,2371.000,2331.000,2240.000,2178.000,2140.000,2113.000,2074.000,2081.000
2752.326,2574.000,2416.000,2334.000,2265.000,2211.000,2143.000,2127.000,2042.000,2089.000,1999.000
2767.830,2529.000,2367.000,2249.000,2249.000,2184.000,2104.000,2121.000,2043.000,2042.000,2026.000
2783.303,2511.000,2351.000,2294.000,2244.000,2225.000,2144.000,2147.000,2020.000,2023.000,1980.000
2798.745,2510.000,2424.000,2273.000,2225.000,2211.000,2135.000,2082.000,2039.000,1998.000,1963.000
2814.158,2586.000,2462.000,2401.000,2331.000,2248.000,2198.000,2147.000,2103.000,2093.000,2066.000
2829.542,2681.000,2561.000,2579.000,2473.000,2410.000,2307.000,2284.000,2284.000,2163.000,2174.000
2844.896,3294.000,3163.000,3077.000,3006.000,2972.000,2932.000,2915.000,2853.000,2791.000,2796.000
2860.220,4531.000,4390.000,4270.000,4287.000,4235.000,4143.000,4132.000,4024.000,4034.000,4002.000
2875.515,6581.000,6503.000,6485.000,6382.000,6268.000,6191.000,6122.000,6155.000,6096.000,6067.000
2890.780,6608.000,6467.000,6336.000,6346.000,6310.000,6230.000,6186.000,6136.000,6103.000,6037.000
2906.016,7129.000,6904.000,6885.000,6873.000,6736.000,6642.000,6624.000,6551.000,6569.000,6555.000
2921.225,8892.000,8817.000,8787.000,8650.000,8572.000,8503.000,8384.000,8324.000,8370.000,8371.000
2936.403,10279.000,10116.000,10051.000,10019.000,9896.000,9913.000,9838.000,9689.000,9672.000,9660.000
2951.552,8286.000,8218.000,7993.000,7980.000,7816.000,7917.000,7761.000,7782.000,7769.000,7629.000
2966.672,7205.000,7136.000,6957.000,6970.000,6843.000,6802.000,6744.000,6789.000,6644.000,6604.000
2981.763,6739.000,6752.000,6596.000,6521.000,6471.000,6484.000,6321.000,6455.000,6285.000,6363.000