Folder: Data/Raman (part 2)

File: 2022_11_26_Hagfish_Film_Unstreched_532nm_Pol_6mW_750mm_600gv_3200wn_iDus_100s_10accum_Pos1.csv
2487.376,1182.000,1143.000,1136.000,1146.000,1139.000,1106.000,1115.000,1119.000,1107.000,1115.000
2503.346,1221.000,1183.000,1183.000,1155.000,1182.000,1155.000,1137.000,1186.000,1135.000,1122.000
2519.284,1230.000,1215.000,1182.000,1192.000,1153.000,1188.000,1175.000,1147.000,1170.000,1165.000
2535.192,1263.000,1215.000,1218.000,1198.000,1211.000,1189.000,1188.000,1145.000,1149.000,1180.000
2551.068,1215.000,1213.000,1221.000,1177.000,1203.000,1218.000,1181.000,1182.000,1156.000,1186.000
2566.914,1236.000,1225.000,1221.000,1231.000,1193.000,1207.000,1211.000,1175.000,1186.000,1166.000
2582.727,1290.000,1276.000,1240.000,1240.000,1270.000,1228.000,1204.000,1211.000,1215.000,1177.000
2598.510,1286.000,1278.000,1260.000,1257.000,1277.000,1259.000,1234.000,1253.000,1237.000,1230.000
2614.264,1331.000,1295.000,1298.000,1262.000,1275.000,1277.000,1287.000,1261.000,1241.000,1238.000
2629.986,1359.000,1303.000,1321.000,1282.000,1303.000,1293.000,1266.000,1286.000,1254.000,1244.000
2645.678,1345.000,1311.000,1297.000,1331.000,1328.000,1286.000,1262.000,1262.000,1259.000,1248.000
2661.340,1364.000,1362.000,1329.000,1319.000,1340.000,1324.000,1319.000,1313.000,1277.000,1280.000
2676.971,1395.000,1388.000,1343.000,1356.000,1322.000,1365.000,1302.000,1339.000,1304.000,1319.000
2692.572,1422.000,1372.000,1369.000,1382.000,1367.000,1338.000,1331.000,1363.000,1314.000,1336.000
2708.142,1462.000,1433.000,1404.000,1393.000,1403.000,1391.000,1362.000,1351.000,1358.000,1368.000
2723.683,1532.000,1448.000,1451.000,1456.000,1446.000,1456.000,1434.000,1406.000,1413.000,1449.000
2739.194,1529.000,1513.000,1501.000,1484.000,1494.000,1515.000,1463.000,1463.000,1457.000,1478.000
2754.675,1561.000,1530.000,1481.000,1486.000,1474.000,1473.000,1460.000,1437.000,1438.000,1415.000
2770.124,1598.000,1481.000,1465.000,1482.000,1452.000,1472.000,1466.000,1432.000,1406.000,1429.000
2785.545,1614.000,1503.000,1489.000,1496.000,1482.000,1465.000,1478.000,1481.000,1487.000,1451.000
2800.937,1532.000,1512.000,1525.000,1500.000,1537.000,1439.000,1476.000,1507.000,1447.000,1471.000
2816.299,1568.000,1505.000,1530.000,1486.000,1524.000,1542.000,1483.000,1489.000,1459.000,1477.000
2831.631,1640.000,1615.000,1603.000,1618.000,1599.000,1607.000,1609.000,1552.000,1550.000,1552.000
2846.935,1860.000,1805.000,1816.000,1828.000,1849.000,1820.000,1809.000,1788.000,1771.000,1781.000
2862.208,2478.000,2453.000,2423.000,2419.000,2416.000,2463.000,2434.000,2367.000,2372.000,2356.000
2877.453,3504.000,3466.000,3412.000,3414.000,3413.000,3383.000,3432.000,3413.000,3339.000,3403.000
2892.668,3700.000,3566.000,3587.000,3575.000,3596.000,3562.000,3578.000,3533.000,3528.000,3582.000
2907.855,3891.000,3822.000,3807.000,3784.000,3775.000,3773.000,3772.000,3841.000,3738.000,3710.000
2923.012,4735.000,4706.000,4684.000,4730.000,4627.000,4683.000,4615.000,4684.000,4573.000,4504.000
2938.139,5552.000,5447.000,5417.000,5399.000,5479.000,5405.000,5392.000,5378.000,5401.000,5370.000
2953.239,4678.000,4621.000,4595.000,4543.000,4557.000,4596.000,4675.000,4533.000,4547.000,4527.000
2968.310,3943.000,3858.000,3823.000,3853.000,3839.000,3831.000,3851.000,3806.000,3799.000,3764.000
2983.353,3586.000,3507.000,3510.000,3573.000,3471.000,3510.000,3483.000,3493.000,3516.000,3468.000
2998.366,3014.000,3012.000,2926.000,2998.000,2944.000,2953.000,2918.000,2949.000,2884.000,2912.000
3013.352,2347.000,2263.000,2298.000,2258.000,2339.000,2302.000,2258.000,2262.000,2222.000,2206.000
3028.309,1957.000,1959.000,1942.000,1901.000,1918.000,1903.000,1907.000,1854.000,1918.000,1861.000
3043.237,1952.000,1907.000,1897.000,1921.000,1907.000,1851.000,1875.000,1838.000,1835.000,1888.000
3058.138,2062.000,2060.000,2063.000,2001.000,2051.000,1994.000,2002.000,1967.000,1971.000,1966.000
3073.010,2197.000,2194.000,2101.000,2129.000,2082.000,2040.000,2043.000,2074.000,2057.000,2110.000
3087.854,1838.000,1883.000,1836.000,1837.000,1841.000,1795.000,1810.000,1815.000,1814.000,1738.000
3102.670,1764.000,1747.000,1728.000,1720.000,1682.000,1675.000,1675.000,1672.000,1693.000,1655.000
3117.457,1767.000,1725.000,1743.000,1739.000,1774.000,1784.000,1679.000,1708.000,1681.000,1672.000
3132.217,1758.000,1728.000,1716.000,1688.000,1715.000,1727.000,1714.000,1678.000,1646.000,1650.000
3146.950,1735.000,1708.000,1711.000,1707.000,1695.000,1700.000,1646.000,1699.000,1637.000,1609.000
3161.655,1767.000,1719.000,1743.000,1724.000,1709.000,1692.000,1664.000,1698.000,1688.000,1650.000
3176.332,1758.000,1734.000,1685.000,1754.000,1706.000,1709.000,1680.000,1664.000,1643.000,1626.000
3190.982,1806.000,1786.000,1737.000,1791.000,1777.000,1736.000,1788.000,1760.000,1706.000,1722.000
3205.604,1824.000,1805.000,1822.000,1802.000,1830.000,1785.000,1796.000,1806.000,1790.000,1723.000
3220.199,1947.000,1945.000,1898.000,1878.000,1914.000,1819.000,1919.000,1877.000,1862.000,1813.000
3234.767,2018.000,1948.000,1931.000,1963.000,1943.000,1959.000,1901.000,1914.000,1926.000,1875.000
3249.307,2114.000,2125.000,2077.000,2084.000,2105.000,2039.000,2052.000,2086.000,1998.000,2031.000
3263.820,2316.000,2276.000,2259.000,2275.000,2261.000,2295.000,2245.000,2215.000,2273.000,2242.000
3278.305,2462.000,2376.000,2377.000,2399.000,2362.000,2365.000,2358.000,2290.000,2311.000,2322.000
3292.764,2464.000,2374.000,2404.000,2353.000,2316.000,2322.000,2311.000,2310.000,2297.000,2279.000
3307.197,2280.000,2274.000,2265.000,2228.000,2239.000,2250.000,2207.000,2227.000,2179.000,2215.000
3321.602,2223.000,2171.000,2155.000,2169.000,2150.000,2177.000,2184.000,2126.000,2129.000,2159.000
3335.981,2157.000,2065.000,2059.000,2067.000,2053.000,2082.000,2052.000,2043.000,2014.000,2003.000
3350.333,2050.000,2075.000,2075.000,2034.000,2042.000,2053.000,1998.000,1987.000,1966.000,1978.000
3364.658,1982.000,1981.000,1963.000,1965.000,1943.000,1956.000,1900.000,1925.000,1913.000,1902.000
3378.957,1955.000,1956.000,1972.000,1890.000,1940.000,1907.000,1895.000,1898.000,1870.000,1835.000
3393.229,1857.000,1897.000,1877.000,1879.000,1837.000,1879.000,1830.000,1804.000,1811.000,1818.000
3407.475,1901.000,1841.000,1803.000,1821.000,1827.000,1828.000,1828.000,1794.000,1743.000,1775.000
3421.695,1844.000,1814.000,1777.000,1802.000,1761.000,1746.000,1758.000,1737.000,1746.000,1738.000
3435.888,1788.000,1747.000,1763.000,1740.000,1756.000,1756.000,1751.000,1687.000,1693.000,1661.000
3450.056,1750.000,1684.000,1721.000,1688.000,1713.000,1696.000,1711.000,1696.000,1712.000,1660.000
3464.195,1730.000,1716.000,1710.000,1698.000,1693.000,1706.000,1666.000,1602.000,1642.000,1623.000
3478.310,1695.000,1687.000,1684.000,1707.000,1654.000,1663.000,1650.000,1642.000,1626.000,1613.000
3492.399,1699.000,1664.000,1657.000,1646.000,1666.000,1644.000,1633.000,1634.000,1611.000,1621.000
3506.463,1688.000,1644.000,1633.000,1629.000,1623.000,1655.000,1684.000,1594.000,1601.000,1591.000
3520.500,1645.000,1642.000,1614.000,1636.000,1596.000,1628.000,1609.000,1563.000,1586.000,1567.000
3534.512,1643.000,1604.000,1596.000,1573.000,1611.000,1576.000,1558.000,1576.000,1574.000,1520.000
3548.498,1631.000,1628.000,1604.000,1588.000,1596.000,1588.000,1574.000,1546.000,1556.000,1559.000
3562.458,1658.000,1624.000,1596.000,1574.000,1588.000,1591.000,1581.000,1553.000,1598.000,1518.000
3576.393,1651.000,1580.000,1565.000,1551.000,1562.000,1554.000,1545.000,1563.000,1542.000,1518.000
3590.302,1585.000,1562.000,1539.000,1529.000,1528.000,1547.000,1522.000,1505.000,1478.000,1486.000
3604.186,1611.000,1571.000,1567.000,1586.000,1515.000,1527.000,1515.000,1553.000,1512.000,1491.000
3618.043,1615.000,1580.000,1563.000,1537.000,1540.000,1521.000,1516.000,1487.000,1478.000,1466.000
3631.877,1620.000,1608.000,1550.000,1537.000,1524.000,1501.000,1533.000,1486.000,1508.000,1467.000
3645.685,1586.000,1563.000,1544.000,1522.000,1555.000,1517.000,1524.000,1515.000,1500.000,1483.000
3659.468,1592.000,1561.000,1519.000,1523.000,1508.000,1501.000,1516.000,1485.000,1478.000,1483.000
3673.226,1591.000,1567.000,1532.000,1520.000,1556.000,1563.000,1546.000,1494.000,1478.000,1503.000
3686.959,1562.000,1550.000,1509.000,1582.000,1529.000,1505.000,1524.000,1491.000,1498.000,1474.000
3700.667,1583.000,1555.000,1537.000,1552.000,1532.000,1548.000,1560.000,1496.000,1524.000,1500.000
3714.350,1562.000,1577.000,1583.000,1562.000,1559.000,1524.000,1537.000,1527.000,1489.000,1507.000
3728.008,1590.000,1545.000,1542.000,1518.000,3764.000,1519.000,1511.000,1501.000,1492.000,1534.000
3741.642,1618.000,1575.000,1581.000,1584.000,1562.000,1537.000,1540.000,1537.000,1512.000,1536.000
3755.251,1607.000,1610.000,1568.000,1572.000,1554.000,1539.000,1545.000,1531.000,1542.000,1490.000
3768.836,1673.000,1633.000,1607.000,1543.000,1596.000,1571.000,1567.000,1572.000,1530.000,1508.000
3782.394,1663.000,1564.000,1656.000,1615.000,1618.000,1573.000,1588.000,1544.000,1569.000,1569.000
3795.930,1652.000,1647.000,1629.000,1637.000,1632.000,1633.000,1609.000,1576.000,1573.000,1574.000
3809.441,1716.000,1683.000,1634.000,1656.000,1665.000,1674.000,1639.000,1631.000,1636.000,1575.000
3822.928,1766.000,1725.000,1688.000,1702.000,1727.000,1701.000,1697.000,1718.000,1689.000,1675.000
3836.391,1808.000,1867.000,1807.000,1793.000,1777.000,1779.000,1817.000,1832.000,1735.000,1734.000
3849.829,2070.000,2090.000,2028.000,1989.000,2056.000,2026.000,1987.000,1959.000,1953.000,1976.000

File: 2022_11_26_Nylon6_532nm_DePol_6mW_750mm_600gv_0wn_iDus_100s_2accum_Pos1.csv
-1054.088,674.000,673.000
-1045.406,674.000,680.000
-1036.731,665.000,676.000
-1028.063,668.000,665.000
-1019.403,664.000,673.000
-1010.751,667.000,655.000
-1002.107,670.000,661.000
-993.469,701.000,664.000
-984.840,670.000,671.000
-976.218,672.000,673.000
-967.603,672.000,673.000
-958.996,670.000,672.000
-950.397,674.000,671.000
-941.805,682.000,675.000
-933.220,673.000,672.000
-924.643,686.000,680.000
-916.073,699.000,697.000
-907.511,686.000,692.000
-898.956,679.000,691.000
-890.409,668.000,692.000
-881.869,682.000,677.000
-873.336,672.000,678.000
-864.811,687.000,684.000
-856.293,673.000,676.000
-847.783,678.000,677.000
-839.280,678.000,673.000
-830.784,673.000,672.000
-822.296,679.000,676.000
-813.815,674.000,681.000
-805.341,669.000,674.000
-796.875,678.000,663.000
-788.416,679.000,673.000
-779.964,671.000,670.000
-771.520,670.000,671.000
-763.083,678.000,670.000
-754.653,678.000,675.000
-746.230,673.000,671.000
-737.815,673.000,674.000
-729.407,687.000,679.000
-721.007,682.000,674.000
-712.612,672.000,672.000
-704.227,678.000,672.000
-695.846,679.000,670.000
-687.475,669.000,671.000
-679.109,675.000,676.000
-670.753,680.000,679.000
-662.401,684.000,677.000
-654.059,672.000,680.000
-645.722,677.000,680.000
-637.394,681.000,683.000
-629.071,681.000,683.000
-620.757,680.000,690.000
-612.448,689.000,697.000
-604.149,683.000,692.000
-595.854,693.000,691.000
-587.569,696.000,691.000
-579.289,693.000,686.000
-571.017,694.000,692.000
-562.751,679.000,683.000
-554.494,678.000,678.000
-546.242,686.000,682.000
-537.999,682.000,683.000
-529.761,689.000,685.000
-521.532,691.000,708.000
-513.308,680.000,685.000
-505.093,694.000,5634.000
-496.883,680.000,691.000
-488.682,695.000,682.000
-480.486,687.000,687.000
-472.299,697.000,692.000
-464.116,684.000,695.000
-455.943,684.000,692.000
-447.775,692.000,688.000
-439.616,693.000,698.000
-431.461,703.000,693.000
-423.316,709.000,701.000
-415.175,706.000,700.000
-407.043,703.000,705.000
-398.916,700.000,702.000
-390.799,705.000,716.000
-382.685,721.000,703.000
-374.581,720.000,705.000
-366.482,722.000,722.000
-358.391,748.000,744.000
-350.305,731.000,741.000
-342.229,761.000,737.000
-334.156,767.000,779.000
-326.093,763.000,757.000
-318.035,786.000,780.000
-309.985,796.000,789.000
-301.940,812.000,824.000
-293.904,833.000,831.000
-285.872,889.000,881.000
-277.850,871.000,880.000
-269.832,867.000,867.000
-261.823,860.000,883.000
-253.818,890.000,903.000
-245.822,927.000,927.000
-237.831,976.000,970.000
-229.849,1012.000,1014.000
-221.871,1032.000,1040.000
-213.903,1093.000,1080.000
-205.938,1141.000,1128.000
-197.983,1161.000,1173.000
-190.032,1204.000,1225.000
-182.090,1277.000,1272.000
-174.152,1382.000,1403.000
-166.223,1489.000,1482.000
-158.298,1596.000,1635.000
-150.383,1765.000,1751.000
-142.472,1899.000,1907.000
-134.569,2152.000,2134.000
-126.671,2548.000,2500.000
-118.782,3146.000,3150.000
-110.897,4092.000,4118.000
-103.021,5649.000,5808.000
-95.149,6546.000,6659.000
-87.286,6448.000,6508.000
-79.427,6662.000,6768.000
-71.577,7298.000,7445.000
-63.732,8025.000,8113.000
-55.895,8931.000,9061.000
-48.062,9798.000,9808.000
-40.239,9399.000,9507.000
-32.419,9674.000,9775.000
-24.608,10549.000,10704.000
-16.801,11338.000,11476.000
-9.004,12331.000,12375.000
-1.210,6920.000,7062.000
6.575,2370.000,2416.000
14.356,15043.000,15147.000
22.128,13134.000,13240.000
29.896,12669.000,12810.000
37.655,11684.000,11940.000
45.410,11354.000,11613.000
53.157,12028.000,12075.000
60.899,12140.000,12305.000
68.633,11555.000,11620.000
76.362,10897.000,10925.000
84.083,10027.000,10140.000
91.800,9483.000,9493.000
99.508,9853.000,9908.000
107.212,10038.000,10068.000
114.907,8542.000,8603.000
122.599,6386.000,6404.000
130.281,4833.000,4981.000
137.960,3933.000,4049.000
145.630,3607.000,3580.000
153.296,3189.000,3232.000
160.954,2842.000,2851.000
168.607,2679.000,2713.000
176.252,2538.000,2541.000
183.893,2285.000,2309.000
191.526,2192.000,2231.000
199.154,2025.000,2076.000
206.774,1960.000,1959.000
214.390,1893.000,1936.000
221.998,1912.000,1870.000
229.601,1775.000,1798.000
237.196,1777.000,1790.000
244.787,1662.000,1728.000
252.370,1617.000,1592.000
259.948,1525.000,1540.000
267.518,1449.000,1454.000
275.085,1437.000,1426.000
282.643,1403.000,1468.000
290.196,1492.000,1488.000
297.742,1414.000,1425.000
305.283,1360.000,1359.000
312.817,1305.000,1333.000
320.346,1245.000,1278.000
327.867,1235.000,1259.000
335.384,1198.000,1221.000
342.893,1162.000,1165.000
350.398,1102.000,1127.000
357.894,1109.000,1108.000
365.387,1116.000,1118.000
372.871,1114.000,1102.000
380.351,968.000,1022.000
387.824,968.000,982.000
395.292,986.000,975.000
402.752,962.000,930.000
410.208,944.000,949.000
417.656,923.000,931.000
425.100,934.000,936.000
432.536,982.000,972.000
439.969,929.000,935.000
447.393,917.000,922.000
454.813,896.000,900.000
462.225,897.000,894.000
469.633,891.000,886.000
477.033,892.000,896.000
484.429,886.000,893.000
491.817,897.000,900.000
499.201,934.000,943.000
506.577,921.000,951.000
513.949,921.000,949.000
521.314,995.000,983.000
528.674,1012.000,963.000
536.026,1039.000,1009.000
543.375,998.000,1004.000
550.715,900.000,884.000
558.052,879.000,886.000
565.381,922.000,906.000
572.706,1012.000,998.000
580.023,1164.000,1126.000
587.336,1219.000,1232.000
594.641,1212.000,1262.000
601.943,1272.000,1285.000
609.236,1255.000,1234.000
616.526,1198.000,1203.000
623.808,1183.000,1156.000
631.086,1156.000,1174.000
638.356,1128.000,1129.000
645.623,1069.000,1088.000
652.881,1021.000,1044.000
660.136,979.000,987.000
667.383,992.000,972.000
674.626,959.000,974.000
681.862,971.000,984.000
689.093,1001.000,1003.000
696.317,1019.000,1040.000
703.537,1075.000,1079.000
710.750,1138.000,1102.000
717.958,1143.000,1142.000
725.159,1094.000,1098.000
732.356,1141.000,1143.000
739.546,1193.000,1187.000
746.731,1184.000,1218.000
753.909,1154.000,1157.000
761.084,1154.000,1172.000
768.250,1208.000,1212.000
775.413,1220.000,1235.000
782.568,1123.000,1175.000
789.720,1116.000,1155.000
796.864,1152.000,1165.000
804.004,1189.000,1210.000
811.136,1263.000,1265.000
818.265,1318.000,1362.000
825.386,1459.000,1467.000
832.504,1547.000,1592.000
839.614,1725.000,1690.000
846.720,1717.000,1738.000
853.819,1649.000,1648.000
860.914,1634.000,1648.000
868.001,1705.000,1742.000
875.085,1889.000,1868.000
882.161,1989.000,1983.000
889.234,2042.000,2056.000
896.299,2074.000,2054.000
903.360,2091.000,2132.000
910.414,2291.000,2322.000
917.465,2613.000,2623.000
924.508,3058.000,3076.000
931.547,4643.000,4674.000
938.579,3068.000,3120.000
943.850,2612.000,2660.000