Folder: Data/Raman (part 6)

File: 2023_07_03_CBD_Liquid_Near_Glass_Pos5_532nm_Pol_47uW_750mm_600gv_0wn_iDus_600s_3accum_50x_Mit_Pos_1.csv
-1054.088,2100.000
-1045.406,2099.000
-1036.731,2119.000
-1028.063,2095.000
-1019.403,2095.000
-1010.751,2123.000
-1002.107,2105.000
-993.469,2111.000
-984.840,2113.000
-976.218,2108.000
-967.603,2100.000
-958.996,2101.000
-950.397,2091.000
-941.805,2127.000
-933.220,2111.000
-924.643,2113.000
-916.073,2121.000
-907.511,2107.000
-898.956,2096.000
-890.409,2089.000
-881.869,2109.000
-873.336,2115.000
-864.811,2143.000
-856.293,2142.000
-847.783,2122.000
-839.280,2130.000
-830.784,2136.000
-822.296,2129.000
-813.815,2134.000
-805.341,2117.000
-796.875,2126.000
-788.416,2132.000
-779.964,2156.000
-771.520,2179.000
-763.083,2168.000
-754.653,2132.000
-746.230,3282.000
-737.815,4403.000
-729.407,2259.000
-721.007,2149.000
-712.612,2159.000
-704.227,2188.000
-695.846,2153.000
-687.475,2153.000
-679.109,3527.000
-670.753,2201.000
-662.401,2183.000
-654.059,2215.000
-645.722,2193.000
-637.394,2162.000
-629.071,2176.000
-620.757,2159.000
-612.448,2211.000
-604.149,2197.000
-595.854,2179.000
-587.569,2201.000
-579.289,2200.000
-571.017,2197.000
-562.751,2217.000
-554.494,2262.000
-546.242,2289.000
-537.999,2216.000
-529.761,2235.000
-521.532,2236.000
-513.308,2235.000
-505.093,2250.000
-496.883,2231.000
-488.682,2250.000
-480.486,2279.000
-472.299,2364.000
-464.116,2301.000
-455.943,2748.000
-447.775,2267.000
-439.616,3129.000
-431.461,2273.000
-423.316,2291.000
-415.175,2283.000
-407.043,2288.000
-398.916,2302.000
-390.799,2401.000
-382.685,2296.000
-374.581,2319.000
-366.482,2352.000
-358.391,2306.000
-350.305,2325.000
-342.229,2362.000
-334.156,2399.000
-326.093,2359.000
-318.035,2854.000
-309.985,2389.000
-301.940,2375.000
-293.904,2363.000
-285.872,2406.000
-277.850,2474.000
-269.832,2400.000
-261.823,2435.000
-253.818,2401.000
-245.822,2465.000
-237.831,2486.000
-229.849,2498.000
-221.871,2515.000
-213.903,2489.000
-205.938,2512.000
-197.983,2522.000
-190.032,4231.000
-182.090,2552.000
-174.152,2552.000
-166.223,2552.000
-158.298,2576.000
-150.383,2684.000
-142.472,2673.000
-134.569,2653.000
-126.671,2760.000
-118.782,2788.000
-110.897,2906.000
-103.021,3052.000
-95.149,3232.000
-87.286,3305.000
-79.427,3488.000
-71.577,3592.000
-63.732,3721.000
-55.895,3907.000
-48.062,4087.000
-40.239,4313.000
-32.419,4647.000
-24.608,5285.000
-16.801,5835.000
-9.004,7205.000
-1.210,6081.000
6.575,5091.000
14.356,7279.000
22.128,6630.000
29.896,5945.000
37.655,5348.000
45.410,5052.000
53.157,4795.000
60.899,4565.000
68.633,4604.000
76.362,4294.000
84.083,4124.000
91.800,4015.000
99.508,3951.000
107.212,3739.000
114.907,3614.000
122.599,3411.000
130.281,3234.000
137.960,3117.000
145.630,3604.000
153.296,3645.000
160.954,3024.000
168.607,3537.000
176.252,2998.000
183.893,3008.000
191.526,3007.000
199.154,2999.000
206.774,2986.000
214.390,3057.000
221.998,3024.000
229.601,3088.000
237.196,3123.000
244.787,3245.000
252.370,3174.000
259.948,3134.000
267.518,3118.000
275.085,3181.000
282.643,3477.000
290.196,3128.000
297.742,3087.000
305.283,3116.000
312.817,3113.000
320.346,3128.000
327.867,3250.000
335.384,3271.000
342.893,3154.000
350.398,3157.000
357.894,3136.000
365.387,3066.000
372.871,3104.000
380.351,3109.000
387.824,3191.000
395.292,3224.000
402.752,3234.000
410.208,3334.000
417.656,3335.000
425.100,3245.000
432.536,3217.000
439.969,3210.000
447.393,3229.000
454.813,3283.000
462.225,3247.000
469.633,3283.000
477.033,3294.000
484.429,3342.000
491.817,3279.000
499.201,3342.000
506.577,3312.000
513.949,8625.000
521.314,3379.000
528.674,3442.000
536.026,3438.000
543.375,3533.000
550.715,3692.000
558.052,3570.000
565.381,3414.000
572.706,3445.000
580.023,3616.000
587.336,3603.000
594.641,3714.000
601.943,3597.000
609.236,3543.000
616.526,3393.000
623.808,4643.000
631.086,3426.000
638.356,3423.000
645.623,3458.000
652.881,3465.000
660.136,3473.000
667.383,3434.000
674.626,3357.000
681.862,3468.000
689.093,3473.000
696.317,3445.000
703.537,3543.000
710.750,3541.000
717.958,3517.000
725.159,3592.000
732.356,3567.000
739.546,3617.000
746.731,3652.000
753.909,3649.000
761.084,3787.000
768.250,3865.000
775.413,4155.000
782.568,3872.000
789.720,3849.000
796.864,3829.000
804.004,5175.000
811.136,3910.000
818.265,3986.000
825.386,3994.000
832.504,4014.000
839.614,4021.000
846.720,4158.000
853.819,4234.000
860.914,4320.000
868.001,4352.000
875.085,4422.000
882.161,4421.000
889.234,4596.000
896.299,5057.000
903.360,4678.000
910.414,4846.000
917.465,4970.000
924.508,5227.000
931.547,5491.000
938.579,5896.000
943.850,6403.000

File: 2023_07_03_Glass_Near_CBD_Liquid_Pos5_532nm_DePol_47uW_750mm_600gv_0wn_iDus_100s_3accum_50x_Mit_Pos_1.csv
-1054.088,1941.000
-1045.406,1956.000
-1036.731,1963.000
-1028.063,1953.000
-1019.403,1960.000
-1010.751,1971.000
-1002.107,1953.000
-993.469,1949.000
-984.840,1960.000
-976.218,1950.000
-967.603,1952.000
-958.996,1944.000
-950.397,1949.000
-941.805,1961.000
-933.220,1959.000
-924.643,1953.000
-916.073,1957.000
-907.511,1961.000
-898.956,1946.000
-890.409,1970.000
-881.869,1952.000
-873.336,1957.000
-864.811,1962.000
-856.293,1965.000
-847.783,1960.000
-839.280,1954.000
-830.784,1957.000
-822.296,1970.000
-813.815,1959.000
-805.341,1968.000
-796.875,1966.000
-788.416,1978.000
-779.964,1970.000
-771.520,1973.000
-763.083,1961.000
-754.653,1972.000
-746.230,1970.000
-737.815,1975.000
-729.407,1991.000
-721.007,1962.000
-712.612,1965.000
-704.227,1962.000
-695.846,1963.000
-687.475,1959.000
-679.109,1952.000
-670.753,1974.000
-662.401,1959.000
-654.059,1964.000
-645.722,1973.000
-637.394,1970.000
-629.071,1969.000
-620.757,1965.000
-612.448,1980.000
-604.149,1963.000
-595.854,1962.000
-587.569,1959.000
-579.289,1950.000
-571.017,1961.000
-562.751,1968.000
-554.494,1973.000
-546.242,1981.000
-537.999,1977.000
-529.761,1966.000
-521.532,1970.000
-513.308,1978.000
-505.093,1967.000
-496.883,1974.000
-488.682,1988.000
-480.486,1978.000
-472.299,1992.000
-464.116,2003.000
-455.943,2000.000
-447.775,1987.000
-439.616,1988.000
-431.461,1989.000
-423.316,1996.000
-415.175,1981.000
-407.043,1977.000
-398.916,1979.000
-390.799,1985.000
-382.685,1979.000
-374.581,1985.000
-366.482,1980.000
-358.391,1978.000
-350.305,1983.000
-342.229,1996.000
-334.156,1970.000
-326.093,1997.000
-318.035,1986.000
-309.985,1992.000
-301.940,1974.000
-293.904,1977.000
-285.872,1983.000
-277.850,1995.000
-269.832,1985.000
-261.823,1993.000
-253.818,1987.000
-245.822,1998.000
-237.831,1996.000
-229.849,2005.000
-221.871,1999.000
-213.903,2002.000
-205.938,1992.000
-197.983,1992.000
-190.032,2002.000
-182.090,1998.000
-174.152,1999.000
-166.223,2004.000
-158.298,1996.000
-150.383,2012.000
-142.472,2014.000
-134.569,2003.000
-126.671,2021.000
-118.782,2013.000
-110.897,2021.000
-103.021,2020.000
-95.149,2010.000
-87.286,2026.000
-79.427,2015.000
-71.577,2023.000
-63.732,2017.000
-55.895,2011.000
-48.062,2000.000
-40.239,2023.000
-32.419,2026.000
-24.608,2033.000
-16.801,2050.000
-9.004,2190.000
-1.210,2293.000
6.575,2392.000
14.356,2118.000
22.128,2034.000
29.896,2030.000
37.655,2023.000
45.410,2034.000
53.157,2045.000
60.899,2025.000
68.633,2034.000
76.362,2058.000
84.083,2025.000
91.800,2050.000
99.508,2034.000
107.212,2032.000
114.907,2029.000
122.599,2019.000
130.281,2047.000
137.960,2024.000
145.630,2047.000
153.296,2022.000
160.954,2033.000
168.607,2055.000
176.252,2046.000
183.893,2050.000
191.526,2050.000
199.154,2037.000
206.774,2032.000
214.390,2035.000
221.998,2047.000
229.601,2045.000
237.196,2055.000
244.787,2054.000
252.370,2052.000
259.948,2055.000
267.518,2050.000
275.085,2075.000
282.643,2067.000
290.196,2067.000
297.742,2064.000
305.283,2053.000
312.817,2068.000
320.346,2058.000
327.867,2085.000
335.384,2067.000
342.893,2066.000
350.398,2053.000
357.894,2067.000
365.387,2062.000
372.871,2060.000
380.351,2076.000
387.824,2056.000
395.292,2083.000
402.752,2085.000
410.208,2083.000
417.656,2100.000
425.100,2052.000
432.536,2088.000
439.969,2071.000
447.393,2071.000
454.813,2067.000
462.225,2080.000
469.633,2085.000
477.033,2065.000
484.429,2092.000
491.817,2090.000
499.201,2076.000
506.577,2080.000
513.949,2070.000
521.314,2098.000
528.674,2099.000
536.026,2086.000
543.375,2084.000
550.715,2106.000
558.052,2067.000
565.381,2095.000
572.706,2097.000
580.023,2105.000
587.336,2091.000
594.641,2092.000
601.943,2114.000
609.236,2108.000
616.526,2109.000
623.808,2095.000
631.086,2101.000
638.356,2119.000
645.623,2099.000
652.881,2108.000
660.136,2116.000
667.383,2105.000
674.626,2106.000
681.862,2116.000
689.093,2125.000
696.317,2122.000
703.537,2123.000
710.750,2135.000
717.958,2135.000
725.159,2140.000
732.356,2144.000
739.546,2116.000
746.731,2130.000
753.909,2135.000
761.084,2149.000
768.250,2159.000
775.413,2162.000
782.568,2179.000
789.720,2166.000
796.864,2170.000
804.004,2189.000
811.136,2202.000
818.265,2185.000
825.386,2183.000
832.504,2199.000
839.614,2196.000
846.720,2191.000
853.819,2203.000
860.914,2226.000
868.001,2210.000
875.085,2232.000
882.161,2253.000
889.234,2277.000
896.299,2300.000
903.360,2306.000
910.414,2308.000
917.465,2340.000
924.508,2381.000
931.547,2396.000
938.579,2432.000
943.850,2500.000

File: 2023_07_03_Glass_Near_CBD_Liquid_Pos5_532nm_Pol_47uW_750mm_600gv_0wn_iDus_100s_3accum_50x_Mit_Pos_1.csv
-1054.088,1953.000
-1045.406,1958.000
-1036.731,1953.000
-1028.063,1964.000
-1019.403,1956.000
-1010.751,1955.000
-1002.107,1958.000
-993.469,1960.000
-984.840,1955.000
-976.218,1957.000
-967.603,1965.000
-958.996,1963.000
-950.397,1956.000
-941.805,1955.000
-933.220,1974.000
-924.643,1976.000
-916.073,1961.000
-907.511,1975.000
-898.956,1961.000
-890.409,1963.000
-881.869,1965.000
-873.336,1979.000
-864.811,1962.000
-856.293,1971.000
-847.783,1974.000
-839.280,1970.000
-830.784,1972.000
-822.296,1986.000
-813.815,1976.000
-805.341,1970.000
-796.875,1973.000
-788.416,1967.000
-779.964,1974.000
-771.520,1981.000
-763.083,1975.000
-754.653,1973.000
-746.230,1984.000
-737.815,1985.000
-729.407,2003.000
-721.007,1981.000
-712.612,1974.000
-704.227,1977.000
-695.846,1981.000
-687.475,1976.000
-679.109,1994.000
-670.753,1985.000
-662.401,2014.000
-654.059,1979.000
-645.722,1967.000
-637.394,1981.000
-629.071,1983.000
-620.757,1989.000
-612.448,1996.000
-604.149,1990.000
-595.854,1978.000
-587.569,1993.000
-579.289,1979.000
-571.017,1992.000
-562.751,2002.000
-554.494,1990.000
-546.242,2009.000
-537.999,1981.000
-529.761,2006.000
-521.532,1992.000
-513.308,2009.000
-505.093,1985.000
-496.883,1990.000
-488.682,2001.000
-480.486,2013.000
-472.299,1994.000
-464.116,2004.000
-455.943,2011.000
-447.775,2006.000
-439.616,2023.000
-431.461,2015.000
-423.316,2013.000
-415.175,2017.000
-407.043,2008.000
-398.916,2007.000
-390.799,2011.000
-382.685,2007.000
-374.581,2015.000
-366.482,2022.000
-358.391,2037.000
-350.305,2024.000
-342.229,2038.000
-334.156,2046.000
-326.093,2031.000
-318.035,2018.000
-309.985,2027.000
-301.940,2040.000
-293.904,2052.000
-285.872,2029.000
-277.850,2031.000
-269.832,2107.000
-261.823,2041.000
-253.818,2035.000
-245.822,2037.000
-237.831,2044.000
-229.849,2055.000
-221.871,2040.000
-213.903,2058.000
-205.938,2046.000
-197.983,2039.000
-190.032,2049.000
-182.090,2069.000
-174.152,2069.000
-166.223,2062.000
-158.298,2048.000
-150.383,2087.000
-142.472,2077.000
-134.569,2064.000
-126.671,2069.000
-118.782,2102.000
-110.897,2084.000
-103.021,2095.000
-95.149,2117.000
-87.286,2088.000
-79.427,2093.000
-71.577,2117.000
-63.732,2105.000
-55.895,2109.000
-48.062,2090.000
-40.239,2108.000
-32.419,2108.000
-24.608,2123.000
-16.801,2150.000
-9.004,2257.000
-1.210,2332.000
6.575,2444.000
14.356,2266.000
22.128,2113.000
29.896,2109.000
37.655,2132.000
45.410,2126.000
53.157,2141.000
60.899,2149.000
68.633,2153.000
76.362,2156.000
84.083,2146.000
91.800,2135.000
99.508,2137.000
107.212,2155.000
114.907,2470.000
122.599,2158.000
130.281,2169.000
137.960,2149.000
145.630,2170.000
153.296,2171.000
160.954,2158.000
168.607,2158.000
176.252,2158.000
183.893,2166.000
191.526,2165.000
199.154,2162.000
206.774,2163.000
214.390,2174.000
221.998,2164.000
229.601,2166.000
237.196,2193.000
244.787,2200.000
252.370,2206.000
259.948,2198.000
267.518,2202.000
275.085,2207.000
282.643,2205.000
290.196,2202.000
297.742,2192.000
305.283,2212.000
312.817,2201.000
320.346,2193.000
327.867,2206.000
335.384,2216.000
342.893,2183.000
350.398,2218.000
357.894,2235.000
365.387,2219.000
372.871,2234.000
380.351,2214.000
387.824,2204.000
395.292,2236.000
402.752,2233.000
410.208,2266.000
417.656,2241.000
425.100,2242.000
432.536,2249.000
439.969,2262.000
447.393,2251.000
454.813,2231.000
462.225,2238.000
469.633,2244.000
477.033,2235.000
484.429,2234.000
491.817,2246.000
499.201,2264.000
506.577,2283.000
513.949,2250.000
521.314,2451.000
528.674,2272.000
536.026,2275.000
543.375,2271.000
550.715,2299.000
558.052,2273.000
565.381,2266.000
572.706,2305.000
580.023,2290.000
587.336,2293.000
594.641,2249.000
601.943,2309.000
609.236,2301.000
616.526,2301.000
623.808,2310.000
631.086,2304.000
638.356,2289.000
645.623,2309.000
652.881,2321.000
660.136,2284.000
667.383,2279.000
674.626,2264.000
681.862,2310.000
689.093,2303.000
696.317,2306.000
703.537,2309.000
710.750,2318.000
717.958,2345.000
725.159,2336.000
732.356,2340.000
739.546,2335.000
746.731,2344.000
753.909,2324.000
761.084,2351.000
768.250,2347.000
775.413,2314.000
782.568,2348.000
789.720,2349.000
796.864,2350.000
804.004,2347.000
811.136,2374.000
818.265,2378.000
825.386,2381.000
832.504,2396.000
839.614,2426.000
846.720,2387.000
853.819,2396.000
860.914,2421.000
868.001,2445.000
875.085,2438.000
882.161,2433.000
889.234,2459.000
896.299,2486.000
903.360,2476.000
910.414,2501.000
917.465,2529.000
924.508,2553.000
931.547,2617.000
938.579,2670.000
943.850,2720.000

File: 2023_07_03_Glass_Near_CBD_Liquid_Pos5_532nm_Pol_47uW_750mm_600gv_0wn_iDus_600s_3accum_50x_Mit_Pos_1.csv
-1054.088,2092.000
-1045.406,2121.000
-1036.731,2116.000
-1028.063,2097.000
-1019.403,2098.000
-1010.751,2097.000
-1002.107,2147.000
-993.469,2090.000
-984.840,2099.000
-976.218,2081.000
-967.603,2092.000
-958.996,2083.000
-950.397,2113.000
-941.805,2116.000
-933.220,2135.000
-924.643,2108.000
-916.073,2099.000
-907.511,2082.000
-898.956,2111.000
-890.409,2562.000
-881.869,2089.000
-873.336,2115.000
-864.811,7629.000
-856.293,2124.000
-847.783,2129.000
-839.280,3382.000
-830.784,2107.000
-822.296,2132.000
-813.815,2115.000
-805.341,2103.000
-796.875,2119.000
-788.416,2134.000
-779.964,2125.000
-771.520,4825.000
-763.083,2707.000
-754.653,2128.000
-746.230,2120.000
-737.815,2158.000
-729.407,2308.000
-721.007,2141.000
-712.612,2113.000
-704.227,2144.000
-695.846,2146.000
-687.475,2143.000
-679.109,2133.000
-670.753,3398.000
-662.401,2164.000
-654.059,2170.000
-645.722,2154.000
-637.394,2153.000
-629.071,4002.000
-620.757,2159.000
-612.448,2319.000
-604.149,2159.000
-595.854,2156.000
-587.569,2164.000
-579.289,2152.000
-571.017,2171.000
-562.751,2179.000
-554.494,2194.000
-546.242,2263.000
-537.999,2172.000
-529.761,2194.000
-521.532,2196.000
-513.308,2204.000
-505.093,2218.000
-496.883,2198.000
-488.682,2211.000
-480.486,2224.000
-472.299,2279.000
-464.116,2277.000
-455.943,2281.000
-447.775,2278.000
-439.616,2263.000
-431.461,2311.000
-423.316,2242.000
-415.175,2266.000
-407.043,2254.000
-398.916,2279.000
-390.799,2296.000
-382.685,5742.000
-374.581,3143.000
-366.482,2282.000
-358.391,2263.000
-350.305,3037.000
-342.229,2329.000
-334.156,5402.000
-326.093,7805.000
-318.035,2728.000
-309.985,2320.000
-301.940,2416.000
-293.904,2333.000
-285.872,2365.000
-277.850,2332.000
-269.832,2341.000
-261.823,2390.000
-253.818,2349.000
-245.822,2345.000
-237.831,2397.000
-229.849,2375.000
-221.871,2397.000
-213.903,2379.000
-205.938,2399.000
-197.983,2431.000
-190.032,2407.000
-182.090,2404.000
-174.152,2428.000
-166.223,2436.000
-158.298,2435.000
-150.383,2568.000
-142.472,2500.000
-134.569,2484.000
-126.671,2500.000
-118.782,2509.000
-110.897,2514.000
-103.021,2522.000
-95.149,2545.000
-87.286,2522.000
-79.427,2536.000
-71.577,2610.000
-63.732,2589.000
-55.895,2592.000
-48.062,3381.000
-40.239,2585.000
-32.419,2619.000
-24.608,2618.000
-16.801,2810.000
-9.004,3616.000
-1.210,4099.000
6.575,5504.000
14.356,3283.000
22.128,2632.000
29.896,2685.000
37.655,2691.000
45.410,2686.000
53.157,2720.000
60.899,2731.000
68.633,2776.000
76.362,2814.000
84.083,2755.000
91.800,2744.000
99.508,2775.000
107.212,2755.000
114.907,2750.000
122.599,2797.000
130.281,2723.000
137.960,2775.000
145.630,2785.000
153.296,2800.000
160.954,2786.000
168.607,2831.000
176.252,2801.000
183.893,2817.000
191.526,2818.000
199.154,2838.000
206.774,2810.000
214.390,2850.000
221.998,2840.000
229.601,2856.000
237.196,2890.000
244.787,2903.000
252.370,2897.000
259.948,2872.000
267.518,2887.000
275.085,3004.000
282.643,2971.000
290.196,2958.000
297.742,2936.000
305.283,2970.000
312.817,2986.000
320.346,2984.000
327.867,3023.000
335.384,3036.000
342.893,2981.000
350.398,2995.000
357.894,3062.000
365.387,2978.000
372.871,3039.000
380.351,3034.000
387.824,3097.000
395.292,3929.000
402.752,3142.000
410.208,3283.000
417.656,3230.000
425.100,3089.000
432.536,3108.000
439.969,3166.000
447.393,3126.000
454.813,4066.000
462.225,3153.000
469.633,4274.000
477.033,3187.000
484.429,3211.000
491.817,3207.000
499.201,3202.000
506.577,3244.000
513.949,3188.000
521.314,3220.000
528.674,3264.000
536.026,3272.000
543.375,3318.000
550.715,3355.000
558.052,3299.000
565.381,3371.000
572.706,3335.000
580.023,3342.000
587.336,3376.000
594.641,3332.000
601.943,3366.000
609.236,3407.000
616.526,3370.000
623.808,3394.000
631.086,3378.000
638.356,3382.000
645.623,3452.000
652.881,3413.000
660.136,3532.000
667.383,3461.000
674.626,3404.000
681.862,3463.000
689.093,3475.000
696.317,3472.000
703.537,3528.000
710.750,3586.000
717.958,3548.000
725.159,3626.000
732.356,3630.000
739.546,3651.000
746.731,3651.000
753.909,3681.000
761.084,3780.000
768.250,3730.000
775.413,3777.000
782.568,3818.000
789.720,3842.000
796.864,3865.000
804.004,3885.000
811.136,3940.000
818.265,4024.000
825.386,4044.000
832.504,4035.000
839.614,4133.000
846.720,4177.000
853.819,4996.000
860.914,4306.000
868.001,4289.000
875.085,4439.000
882.161,4506.000
889.234,4687.000
896.299,4729.000
903.360,4790.000
910.414,5002.000
917.465,5243.000
924.508,5407.000
931.547,5740.000
938.579,6155.000
943.850,6703.000

File: 2023_07_04_CBN_Powder_Pos7_532nm_DePol_230uW_750mm_600gv_0wn_iDus_100s_3accum_50x_Mit.csv
-1054.088,1996.000
-1045.406,2000.000
-1036.731,2016.000
-1028.063,2001.000
-1019.403,2012.000
-1010.751,2017.000
-1002.107,2001.000
-993.469,2009.000
-984.840,2005.000
-976.218,2011.000
-967.603,2010.000
-958.996,2004.000
-950.397,1999.000
-941.805,2017.000
-933.220,2007.000
-924.643,2004.000
-916.073,2006.000
-907.511,2010.000
-898.956,2015.000
-890.409,2012.000
-881.869,2004.000
-873.336,2001.000
-864.811,2010.000
-856.293,2023.000
-847.783,2017.000
-839.280,2001.000
-830.784,2015.000
-822.296,2014.000
-813.815,2007.000
-805.341,2008.000
-796.875,2029.000
-788.416,2026.000
-779.964,2017.000
-771.520,2032.000
-763.083,2029.000
-754.653,2024.000
-746.230,2018.000
-737.815,2042.000
-729.407,2063.000
-721.007,2027.000
-712.612,2038.000
-704.227,2029.000
-695.846,2048.000
-687.475,2028.000
-679.109,2038.000
-670.753,2059.000
-662.401,2023.000
-654.059,2032.000
-645.722,2047.000
-637.394,2034.000
-629.071,2032.000
-620.757,2047.000
-612.448,2046.000
-604.149,2050.000
-595.854,2063.000
-587.569,2037.000
-579.289,2042.000
-571.017,2040.000
-562.751,2048.000
-554.494,2054.000
-546.242,2060.000
-537.999,2051.000
-529.761,2049.000
-521.532,2063.000
-513.308,2066.000
-505.093,2086.000
-496.883,2059.000
-488.682,2056.000
-480.486,2082.000
-472.299,2083.000
-464.116,2062.000
-455.943,2072.000
-447.775,2059.000
-439.616,2068.000
-431.461,2068.000
-423.316,2072.000
-415.175,2069.000
-407.043,2069.000
-398.916,2082.000
-390.799,2077.000
-382.685,2089.000
-374.581,2090.000
-366.482,2070.000
-358.391,2109.000
-350.305,2094.000
-342.229,2122.000
-334.156,2789.000
-326.093,2115.000
-318.035,2138.000
-309.985,2153.000
-301.940,2117.000
-293.904,2102.000
-285.872,2121.000
-277.850,2108.000
-269.832,2118.000
-261.823,2116.000
-253.818,2124.000
-245.822,2130.000
-237.831,2145.000
-229.849,2180.000
-221.871,2204.000
-213.903,2173.000
-205.938,2155.000
-197.983,2161.000
-190.032,2177.000
-182.090,2248.000
-174.152,2357.000
-166.223,2262.000
-158.298,2268.000
-150.383,2414.000
-142.472,2299.000
-134.569,2256.000
-126.671,2317.000
-118.782,2403.000
-110.897,2574.000
-103.021,2681.000
-95.149,2696.000
-87.286,2863.000
-79.427,3303.000
-71.577,3429.000
-63.732,4202.000
-55.895,4245.000
-48.062,5777.000
-40.239,7924.000
-32.419,9208.000
-24.608,12007.000
-16.801,9463.000
-9.004,5472.000
-1.210,3492.000
6.575,2845.000
14.356,4668.000
22.128,7035.000
29.896,15182.000
37.655,10768.000
45.410,12320.000
53.157,8370.000
60.899,5994.000
68.633,4704.000
76.362,4259.000
84.083,3921.000
91.800,3796.000
99.508,3162.000
107.212,3056.000
114.907,3036.000
122.599,2914.000
130.281,2650.000
137.960,2518.000
145.630,2451.000
153.296,2538.000
160.954,2718.000
168.607,2517.000
176.252,2513.000
183.893,2755.000
191.526,2538.000
199.154,2357.000
206.774,2304.000
214.390,2336.000
221.998,2418.000
229.601,2459.000
237.196,2433.000
244.787,2441.000
252.370,2327.000
259.948,2326.000
267.518,2319.000
275.085,2319.000
282.643,2314.000
290.196,2313.000
297.742,2365.000
305.283,2400.000
312.817,2358.000
320.346,2510.000
327.867,2508.000
335.384,2376.000
342.893,2351.000
350.398,2352.000
357.894,2377.000
365.387,2471.000
372.871,2374.000
380.351,2293.000
387.824,2287.000
395.292,2542.000
402.752,2305.000
410.208,2398.000
417.656,2335.000
425.100,2289.000
432.536,2317.000
439.969,2311.000
447.393,2276.000
454.813,2297.000
462.225,2289.000
469.633,2311.000
477.033,2347.000
484.429,2420.000
491.817,2433.000
499.201,2363.000
506.577,2447.000
513.949,2362.000
521.314,2383.000
528.674,2502.000
536.026,2448.000
543.375,2414.000
550.715,2404.000
558.052,2366.000
565.381,2396.000
572.706,2401.000
580.023,2466.000
587.336,2377.000
594.641,2398.000
601.943,2409.000
609.236,2494.000
616.526,2500.000
623.808,2440.000
631.086,2398.000
638.356,2393.000
645.623,2413.000
652.881,2402.000
660.136,2515.000
667.383,2496.000
674.626,2508.000
681.862,2466.000
689.093,2547.000
696.317,2710.000
703.537,2616.000
710.750,2627.000
717.958,2573.000
725.159,2534.000
732.356,2564.000
739.546,2508.000
746.731,2537.000
753.909,2547.000
761.084,2537.000
768.250,2599.000
775.413,3015.000
782.568,2597.000
789.720,2619.000
796.864,2607.000
804.004,2604.000
811.136,2592.000
818.265,2719.000
825.386,2650.000
832.504,2733.000
839.614,2748.000
846.720,2777.000
853.819,2794.000
860.914,2903.000
868.001,2898.000
875.085,2890.000
882.161,2927.000
889.234,2998.000
896.299,3159.000
903.360,3153.000
910.414,3189.000
917.465,3323.000
924.508,3405.000
931.547,3619.000
938.579,3772.000
943.850,4007.000