Folder: Data/Raman (part 12)

File: 2024_10_30_Sample5_CBD_Proline_Cocrystal_Position1_532nm_960wn_1p3mW_10sec_4Scans_Unpol.csv
15.605,732.000,721.000,705.000,711.000
25.299,840.000,844.000,816.000,823.000
34.981,863.000,834.000,825.000,827.000
44.655,807.000,789.000,779.000,776.000
54.319,803.000,798.000,780.000,768.000
63.971,831.000,826.000,816.000,812.000
73.615,798.000,796.000,781.000,786.000
83.249,776.000,769.000,735.000,742.000
92.872,779.000,770.000,765.000,763.000
102.486,779.000,771.000,751.000,764.000
112.091,751.000,745.000,726.000,731.000
121.683,717.000,715.000,710.000,706.000
131.268,708.000,693.000,691.000,686.000
140.843,694.000,687.000,683.000,676.000
150.406,702.000,678.000,679.000,676.000
159.962,692.000,693.000,664.000,672.000
169.508,690.000,678.000,680.000,671.000
179.041,705.000,683.000,674.000,674.000
188.567,700.000,687.000,671.000,675.000
198.084,686.000,677.000,670.000,663.000
207.588,701.000,685.000,670.000,681.000
217.085,685.000,684.000,672.000,668.000
226.573,690.000,694.000,677.000,684.000
236.048,709.000,679.000,681.000,682.000
245.516,690.000,682.000,679.000,681.000
254.974,714.000,695.000,690.000,689.000
264.421,717.000,704.000,688.000,684.000
273.860,702.000,682.000,672.000,681.000
283.289,700.000,682.000,679.000,681.000
292.707,707.000,671.000,676.000,673.000
302.117,699.000,679.000,672.000,670.000
311.517,707.000,682.000,682.000,675.000
320.906,699.000,683.000,671.000,681.000
330.288,727.000,711.000,709.000,693.000
339.660,711.000,700.000,682.000,681.000
349.020,701.000,689.000,673.000,675.000
358.373,691.000,683.000,675.000,669.000
367.717,697.000,679.000,670.000,680.000
377.049,699.000,686.000,682.000,681.000
386.374,712.000,695.000,687.000,678.000
395.689,721.000,692.000,677.000,679.000
404.993,708.000,704.000,676.000,678.000
414.289,703.000,675.000,678.000,671.000
423.574,709.000,688.000,664.000,683.000
432.851,698.000,684.000,675.000,672.000
442.120,704.000,692.000,688.000,666.000
451.376,703.000,680.000,689.000,673.000
460.626,706.000,692.000,690.000,678.000
469.866,718.000,701.000,683.000,683.000
479.095,724.000,691.000,689.000,683.000
488.317,731.000,708.000,704.000,699.000
497.529,715.000,686.000,688.000,678.000
506.730,714.000,695.000,686.000,679.000
515.924,704.000,683.000,669.000,677.000
525.109,735.000,714.000,710.000,692.000
534.282,735.000,714.000,689.000,683.000
543.448,728.000,702.000,708.000,691.000
552.605,740.000,729.000,716.000,705.000
561.751,741.000,702.000,690.000,678.000
570.889,726.000,700.000,691.000,693.000
580.019,732.000,711.000,712.000,703.000
589.137,774.000,742.000,742.000,704.000
598.248,737.000,711.000,707.000,713.000
607.350,730.000,698.000,692.000,694.000
616.441,728.000,700.000,693.000,680.000
625.525,730.000,699.000,695.000,686.000
634.600,723.000,697.000,682.000,672.000
643.664,730.000,698.000,692.000,691.000
652.720,730.000,706.000,706.000,703.000
661.768,736.000,702.000,693.000,693.000
670.805,732.000,700.000,701.000,686.000
679.834,722.000,695.000,693.000,679.000
688.855,732.000,705.000,687.000,689.000
697.865,727.000,706.000,695.000,677.000
706.868,735.000,704.000,699.000,680.000
715.861,740.000,704.000,696.000,683.000
724.844,745.000,699.000,695.000,691.000
733.820,738.000,694.000,685.000,671.000
742.787,741.000,710.000,699.000,698.000
751.743,739.000,722.000,696.000,687.000
760.692,746.000,709.000,700.000,689.000
769.633,758.000,735.000,720.000,721.000
778.562,803.000,779.000,763.000,759.000
787.485,744.000,728.000,713.000,700.000
796.399,751.000,717.000,717.000,688.000
805.302,782.000,735.000,725.000,733.000
814.198,754.000,721.000,711.000,704.000
823.085,760.000,718.000,707.000,703.000
831.962,767.000,721.000,704.000,697.000
840.832,762.000,721.000,709.000,693.000
849.693,744.000,723.000,714.000,957.000
858.543,788.000,743.000,731.000,713.000
867.387,768.000,737.000,718.000,710.000
876.222,767.000,718.000,715.000,708.000
885.046,758.000,725.000,714.000,712.000
893.864,757.000,716.000,716.000,710.000
902.673,751.000,726.000,709.000,710.000
911.471,748.000,728.000,704.000,699.000
920.262,766.000,717.000,702.000,709.000
929.045,765.000,728.000,711.000,703.000
937.817,750.000,707.000,708.000,697.000
946.583,749.000,704.000,715.000,686.000
955.340,748.000,727.000,705.000,714.000
964.087,773.000,723.000,718.000,711.000
972.827,771.000,723.000,713.000,710.000
981.558,769.000,737.000,719.000,722.000
990.279,770.000,730.000,716.000,704.000
998.993,780.000,732.000,710.000,709.000
1007.699,794.000,736.000,741.000,740.000
1016.394,799.000,748.000,720.000,737.000
1025.083,766.000,731.000,713.000,715.000
1033.763,762.000,732.000,726.000,705.000
1042.433,764.000,732.000,705.000,698.000
1051.096,759.000,729.000,722.000,698.000
1059.751,773.000,736.000,714.000,705.000
1068.395,768.000,734.000,727.000,713.000
1077.033,789.000,747.000,728.000,748.000
1085.663,768.000,723.000,717.000,708.000
1094.282,769.000,745.000,740.000,722.000
1102.895,821.000,774.000,762.000,742.000
1111.499,775.000,733.000,724.000,714.000
1120.093,767.000,721.000,712.000,703.000
1128.681,777.000,739.000,725.000,718.000
1137.261,775.000,739.000,720.000,708.000
1145.830,775.000,735.000,722.000,723.000
1154.392,756.000,725.000,716.000,717.000
1162.947,770.000,721.000,716.000,717.000
1171.491,784.000,748.000,727.000,726.000
1180.029,779.000,743.000,734.000,731.000
1188.558,760.000,739.000,713.000,711.000
1197.078,767.000,723.000,718.000,715.000
1205.591,783.000,731.000,715.000,707.000
1214.096,784.000,719.000,726.000,712.000
1222.590,771.000,725.000,724.000,722.000
1231.079,784.000,747.000,726.000,713.000
1239.559,771.000,733.000,730.000,710.000
1248.029,767.000,742.000,733.000,712.000
1256.493,760.000,721.000,704.000,711.000
1264.947,787.000,726.000,731.000,715.000
1273.394,772.000,737.000,743.000,731.000
1281.834,785.000,741.000,735.000,725.000
1290.263,786.000,747.000,751.000,724.000
1298.686,796.000,776.000,760.000,752.000
1307.101,831.000,785.000,772.000,762.000
1315.507,779.000,746.000,729.000,734.000
1323.905,813.000,771.000,746.000,732.000
1332.296,820.000,781.000,761.000,746.000
1340.677,830.000,790.000,778.000,759.000
1349.052,794.000,751.000,735.000,735.000
1357.419,808.000,766.000,738.000,734.000
1365.776,806.000,773.000,766.000,761.000
1374.126,839.000,791.000,790.000,786.000
1382.469,778.000,740.000,727.000,714.000
1390.802,774.000,738.000,722.000,717.000
1399.128,768.000,744.000,724.000,731.000
1407.447,769.000,733.000,711.000,717.000
1415.756,780.000,742.000,717.000,718.000
1424.059,824.000,793.000,774.000,770.000
1432.354,883.000,837.000,833.000,804.000
1440.639,829.000,797.000,789.000,774.000
1448.918,833.000,791.000,785.000,768.000
1457.190,810.000,764.000,746.000,728.000
1465.451,776.000,743.000,724.000,720.000
1473.707,761.000,730.000,721.000,698.000
1481.954,772.000,730.000,720.000,708.000
1490.192,758.000,727.000,716.000,709.000
1498.424,773.000,719.000,716.000,704.000
1506.648,777.000,739.000,717.000,702.000
1514.863,763.000,737.000,727.000,710.000
1523.071,760.000,736.000,722.000,708.000
1531.272,755.000,726.000,704.000,697.000
1539.463,755.000,726.000,706.000,699.000
1547.648,767.000,710.000,706.000,698.000
1555.825,750.000,720.000,704.000,704.000
1563.993,768.000,733.000,709.000,699.000
1572.155,768.000,720.000,709.000,708.000
1580.309,770.000,750.000,738.000,717.000
1588.454,762.000,730.000,719.000,708.000
1596.593,763.000,733.000,724.000,706.000
1604.724,776.000,724.000,720.000,717.000
1612.845,790.000,759.000,734.000,726.000
1620.961,808.000,768.000,757.000,746.000
1629.069,806.000,775.000,768.000,759.000
1637.168,862.000,833.000,806.000,808.000
1645.260,807.000,768.000,759.000,740.000
1653.345,871.000,813.000,795.000,805.000
1661.421,874.000,823.000,813.000,797.000
1669.491,781.000,749.000,726.000,714.000
1677.553,779.000,738.000,715.000,696.000
1685.606,767.000,737.000,720.000,715.000
1693.653,779.000,720.000,716.000,703.000
1701.693,765.000,726.000,711.000,703.000
1709.723,765.000,720.000,711.000,705.000
1717.748,765.000,718.000,718.000,690.000
1725.765,756.000,733.000,705.000,701.000
1733.772,759.000,719.000,707.000,689.000
1741.774,758.000,723.000,710.000,713.000
1749.769,767.000,719.000,725.000,693.000
1757.754,750.000,731.000,714.000,697.000
1765.733,772.000,732.000,722.000,697.000
1773.705,775.000,718.000,706.000,705.000
1781.668,772.000,734.000,708.000,701.000
1789.625,767.000,729.000,714.000,705.000
1797.574,759.000,729.000,715.000,702.000
1805.515,768.000,715.000,724.000,706.000
1810.277,776.000,739.000,727.000,709.000

File: 2024_10_30_Sample5_CBD_Proline_Cocrystal_Position1_532nm_960wn_6mW_10sec_4Scans_Unpol.csv
15.605,907.000,899.000,908.000,910.000
25.299,1286.000,1316.000,1326.000,1378.000
34.981,1336.000,1364.000,1371.000,1396.000
44.655,1157.000,1157.000,1197.000,1232.000
54.319,1144.000,1160.000,1170.000,1183.000
63.971,1318.000,1284.000,1311.000,1340.000
73.615,1124.000,1145.000,1169.000,1193.000
83.249,1038.000,1041.000,1055.000,1087.000
92.872,1073.000,1101.000,1105.000,1130.000
102.486,1043.000,1081.000,1095.000,1121.000
112.091,971.000,959.000,987.000,1013.000
121.683,843.000,867.000,879.000,896.000
131.268,780.000,805.000,820.000,840.000
140.843,779.000,770.000,788.000,813.000
150.406,774.000,778.000,785.000,804.000
159.962,748.000,750.000,767.000,783.000
169.508,731.000,752.000,775.000,785.000
179.041,728.000,742.000,760.000,788.000
188.567,748.000,739.000,768.000,798.000
198.084,735.000,744.000,759.000,780.000
207.588,739.000,751.000,774.000,803.000
217.085,761.000,747.000,764.000,797.000
226.573,761.000,750.000,774.000,817.000
236.048,767.000,775.000,793.000,807.000
245.516,753.000,775.000,781.000,815.000
254.974,799.000,819.000,856.000,875.000
264.421,770.000,794.000,820.000,841.000
273.860,765.000,751.000,779.000,813.000
283.289,764.000,777.000,787.000,841.000
292.707,740.000,776.000,794.000,839.000
302.117,742.000,756.000,772.000,796.000
311.517,755.000,744.000,758.000,825.000
320.906,740.000,757.000,786.000,823.000
330.288,841.000,830.000,881.000,916.000
339.660,798.000,816.000,838.000,863.000
349.020,747.000,774.000,780.000,829.000
358.373,742.000,742.000,781.000,819.000
367.717,730.000,747.000,791.000,826.000
377.049,748.000,755.000,780.000,826.000
386.374,773.000,797.000,793.000,867.000
395.689,773.000,777.000,827.000,855.000
404.993,773.000,800.000,829.000,869.000
414.289,756.000,769.000,805.000,839.000
423.574,769.000,767.000,818.000,840.000
432.851,762.000,785.000,829.000,851.000
442.120,766.000,773.000,797.000,866.000
451.376,758.000,791.000,809.000,858.000
460.626,763.000,784.000,820.000,862.000
469.866,797.000,805.000,850.000,919.000
479.095,781.000,808.000,859.000,917.000
488.317,836.000,838.000,902.000,929.000
497.529,774.000,803.000,831.000,892.000
506.730,767.000,793.000,830.000,868.000
515.924,763.000,778.000,827.000,881.000
525.109,835.000,875.000,891.000,974.000
534.282,834.000,840.000,895.000,934.000
543.448,845.000,861.000,883.000,970.000
552.605,882.000,932.000,957.000,1013.000
561.751,812.000,827.000,849.000,920.000
570.889,819.000,829.000,875.000,936.000
580.019,873.000,907.000,944.000,1023.000
589.137,929.000,974.000,1003.000,1085.000
598.248,841.000,872.000,886.000,971.000
607.350,810.000,841.000,892.000,946.000
616.441,788.000,827.000,902.000,954.000
625.525,780.000,820.000,861.000,934.000
634.600,786.000,814.000,864.000,943.000
643.664,801.000,815.000,883.000,957.000
652.720,863.000,858.000,953.000,1019.000
661.768,818.000,824.000,898.000,990.000
670.805,801.000,824.000,881.000,965.000
679.834,800.000,819.000,874.000,956.000
688.855,781.000,812.000,870.000,966.000
697.865,791.000,810.000,889.000,973.000
706.868,803.000,825.000,887.000,976.000
715.861,809.000,841.000,888.000,968.000
724.844,797.000,843.000,902.000,1000.000
733.820,819.000,833.000,921.000,1004.000
742.787,814.000,837.000,896.000,1006.000
751.743,846.000,872.000,945.000,1064.000
760.692,855.000,873.000,942.000,1031.000
769.633,908.000,941.000,1012.000,1105.000
778.562,1094.000,1140.000,1226.000,1322.000
787.485,895.000,911.000,982.000,1105.000
796.399,856.000,921.000,978.000,1099.000
805.302,943.000,955.000,1035.000,1166.000
814.198,844.000,878.000,942.000,1066.000
823.085,863.000,883.000,961.000,1063.000
831.962,863.000,896.000,969.000,1071.000
840.832,866.000,897.000,987.000,1078.000
849.693,881.000,912.000,995.000,1094.000
858.543,942.000,993.000,1044.000,1169.000
867.387,924.000,969.000,1029.000,1131.000
876.222,879.000,903.000,983.000,1092.000
885.046,863.000,926.000,1006.000,1099.000
893.864,897.000,928.000,1020.000,1085.000
902.673,898.000,927.000,970.000,1102.000
911.471,861.000,901.000,974.000,1081.000
920.262,875.000,908.000,970.000,1079.000
929.045,846.000,884.000,966.000,1078.000
937.817,828.000,881.000,938.000,1052.000
946.583,830.000,862.000,947.000,1051.000
955.340,862.000,881.000,958.000,1095.000
964.087,879.000,920.000,1016.000,1090.000
972.827,884.000,908.000,971.000,1111.000
981.558,934.000,971.000,1061.000,1149.000
990.279,871.000,935.000,994.000,1092.000
998.993,913.000,940.000,1047.000,1110.000
1007.699,1004.000,1023.000,1081.000,1240.000
1016.394,972.000,1005.000,1066.000,1174.000
1025.083,891.000,937.000,1003.000,1130.000
1033.763,902.000,912.000,991.000,1105.000
1042.433,874.000,926.000,980.000,1085.000
1051.096,902.000,921.000,992.000,1125.000
1059.751,901.000,941.000,1031.000,1121.000
1068.395,908.000,944.000,1013.000,1134.000
1077.033,959.000,996.000,1107.000,1201.000
1085.663,884.000,927.000,1004.000,1116.000
1094.282,970.000,988.000,1070.000,1215.000
1102.895,1093.000,1096.000,1199.000,1309.000
1111.499,921.000,976.000,1059.000,1195.000
1120.093,855.000,886.000,961.000,1088.000
1128.681,940.000,952.000,1049.000,1146.000
1137.261,912.000,957.000,1038.000,1131.000
1145.830,923.000,969.000,1041.000,1183.000
1154.392,878.000,889.000,992.000,1120.000
1162.947,874.000,879.000,991.000,1118.000
1171.491,950.000,1006.000,1080.000,1211.000
1180.029,932.000,934.000,1078.000,1149.000
1188.558,890.000,939.000,1011.000,1114.000
1197.078,887.000,903.000,1003.000,1113.000
1205.591,884.000,933.000,1024.000,1136.000
1214.096,919.000,959.000,1031.000,1176.000
1222.590,912.000,965.000,1049.000,1180.000
1231.079,935.000,967.000,1051.000,1179.000
1239.559,904.000,930.000,1025.000,1129.000
1248.029,904.000,956.000,1053.000,1152.000
1256.493,874.000,917.000,995.000,1127.000
1264.947,906.000,962.000,1068.000,1166.000
1273.394,964.000,988.000,1078.000,1197.000
1281.834,951.000,1003.000,1056.000,1213.000
1290.263,995.000,1020.000,1122.000,1247.000
1298.686,1050.000,1108.000,1173.000,1290.000
1307.101,1116.000,1141.000,1275.000,1363.000
1315.507,968.000,995.000,1078.000,1197.000
1323.905,1031.000,1071.000,1159.000,1288.000
1332.296,1088.000,1103.000,1206.000,1334.000
1340.677,1095.000,1144.000,1245.000,1364.000
1349.052,1007.000,1023.000,1123.000,1239.000
1357.419,1005.000,1041.000,1123.000,1245.000
1365.776,1086.000,1155.000,1237.000,1330.000
1374.126,1141.000,1176.000,1267.000,1429.000
1382.469,907.000,942.000,1036.000,1170.000
1390.802,920.000,967.000,1046.000,1141.000
1399.128,912.000,964.000,1067.000,1168.000
1407.447,885.000,912.000,985.000,1134.000
1415.756,900.000,966.000,1039.000,1176.000
1424.059,1131.000,1190.000,1221.000,1350.000
1432.354,1287.000,1354.000,1429.000,1554.000
1440.639,1170.000,1179.000,1275.000,1409.000
1448.918,1116.000,1150.000,1224.000,1382.000
1457.190,990.000,1050.000,1116.000,1269.000
1465.451,919.000,946.000,1031.000,1177.000
1473.707,881.000,916.000,1019.000,1131.000
1481.954,876.000,890.000,980.000,1112.000
1490.192,876.000,895.000,981.000,1093.000
1498.424,871.000,928.000,993.000,1139.000
1506.648,871.000,925.000,1003.000,1127.000
1514.863,867.000,913.000,997.000,1141.000
1523.071,867.000,913.000,1007.000,1118.000
1531.272,850.000,902.000,997.000,1106.000
1539.463,849.000,914.000,973.000,1113.000
1547.648,875.000,928.000,1018.000,1111.000
1555.825,876.000,890.000,989.000,1119.000
1563.993,861.000,898.000,989.000,1167.000
1572.155,896.000,944.000,1015.000,1158.000
1580.309,921.000,971.000,1036.000,1172.000
1588.454,894.000,912.000,1035.000,1172.000
1596.593,895.000,917.000,1005.000,1166.000
1604.724,903.000,949.000,1047.000,1191.000
1612.845,962.000,1034.000,1123.000,1250.000
1620.961,1067.000,1113.000,1224.000,1379.000
1629.069,1056.000,1096.000,1200.000,1340.000
1637.168,1225.000,1311.000,1381.000,1524.000
1645.260,1045.000,1086.000,1184.000,1306.000
1653.345,1231.000,1303.000,1353.000,1492.000
1661.421,1258.000,1256.000,1377.000,1485.000
1669.491,916.000,950.000,1051.000,1189.000
1677.553,875.000,929.000,995.000,1117.000
1685.606,863.000,910.000,974.000,1114.000
1693.653,852.000,899.000,984.000,1130.000
1701.693,841.000,906.000,979.000,1113.000
1709.723,846.000,905.000,980.000,1083.000
1717.748,870.000,878.000,977.000,1093.000
1725.765,839.000,899.000,972.000,1120.000
1733.772,854.000,890.000,975.000,1107.000
1741.774,837.000,885.000,978.000,1103.000
1749.769,852.000,886.000,987.000,1116.000
1757.754,845.000,878.000,951.000,1106.000
1765.733,847.000,871.000,984.000,1113.000
1773.705,840.000,888.000,974.000,1080.000
1781.668,842.000,892.000,977.000,1088.000
1789.625,850.000,893.000,977.000,1091.000
1797.574,828.000,898.000,972.000,1079.000
1805.515,848.000,875.000,967.000,1087.000
1810.277,820.000,884.000,989.000,1098.000