Folder: Data/Raman (part 9)

File: 2023_07_05_CBG_Powder_Pos9_532nm_DePol_230uW_750mm_600gv_977wn_iDus_100s_10accum_50x_Mit_Pos2.csv
34.493,11004.000
42.233,12010.000
49.965,11724.000
57.693,11293.000
65.412,11499.000
73.127,11207.000
80.834,9558.000
88.536,8856.000
96.232,8103.000
103.919,7838.000
111.603,7757.000
119.278,7674.000
126.948,7629.000
134.613,7701.000
142.269,7710.000
149.920,7570.000
157.564,7533.000
165.203,7591.000
172.834,7549.000
180.461,7527.000
188.081,7478.000
195.693,7444.000
203.302,7473.000
210.901,7435.000
218.497,7422.000
226.084,7398.000
233.667,7454.000
241.244,7416.000
248.813,7487.000
256.378,7687.000
263.934,7500.000
271.487,7568.000
279.031,7682.000
286.571,7850.000
294.105,7613.000
301.630,7529.000
309.152,7520.000
316.666,7633.000
324.175,7776.000
331.678,7752.000
339.173,7724.000
346.665,7746.000
354.148,7702.000
361.627,7565.000
369.098,7626.000
376.564,7590.000
384.025,7543.000
391.478,7528.000
398.927,7593.000
406.367,7637.000
413.804,7531.000
421.233,7503.000
428.658,7632.000
436.076,7699.000
443.487,7606.000
450.894,7883.000
458.292,7736.000
465.687,7564.000
473.076,7584.000
480.457,7580.000
487.834,7646.000
495.203,7581.000
502.568,7588.000
509.925,7565.000
517.278,7633.000
524.626,7698.000
531.965,7888.000
539.300,7910.000
546.628,7639.000
553.952,7678.000
561.268,7661.000
568.580,7731.000
575.886,8040.000
583.184,7941.000
590.479,7822.000
597.765,7834.000
605.048,7741.000
612.323,7768.000
619.594,7756.000
626.859,7658.000
634.117,7702.000
641.371,7688.000
648.616,7714.000
655.859,7777.000
663.095,7682.000
670.324,7711.000
677.548,7698.000
684.765,7667.000
691.979,7685.000
699.184,7684.000
706.386,7699.000
713.582,7771.000
720.771,7987.000
727.955,7938.000
735.132,7824.000
742.306,7847.000
749.471,7762.000
756.633,7840.000
763.789,8063.000
770.938,7858.000
778.083,8116.000
785.220,7893.000
792.354,7929.000
799.479,7898.000
806.602,7861.000
813.718,7822.000
820.827,7808.000
827.933,7853.000
835.031,7895.000
842.125,7918.000
849.213,7963.000
856.294,8069.000
863.372,7839.000
870.441,7883.000
877.508,8003.000
884.566,7891.000
891.621,7912.000
898.671,7938.000
905.713,7917.000
912.751,7871.000
919.782,7875.000
926.810,7892.000
933.830,7874.000
940.846,7832.000
947.857,7877.000
954.860,7894.000
961.860,10359.000
968.853,7991.000
975.841,7920.000
982.825,8033.000
989.801,8125.000
996.773,8324.000
1003.738,7950.000
1010.700,8024.000
1017.654,7924.000
1024.605,7949.000
1031.550,8050.000
1038.488,7988.000
1045.422,7998.000
1052.349,8094.000
1059.273,8102.000
1066.189,8125.000
1073.102,8008.000
1080.009,8002.000
1086.909,8004.000
1093.806,8201.000
1100.695,8076.000
1107.581,8003.000
1114.462,8001.000
1121.335,8174.000
1128.205,8258.000
1135.067,8092.000
1141.927,8060.000
1148.779,8014.000
1155.627,8039.000
1162.470,8011.000
1169.306,8093.000
1176.139,8171.000
1182.964,8116.000
1189.786,8064.000
1196.601,8097.000
1203.413,8049.000
1210.219,8165.000
1217.018,8120.000
1223.814,8198.000
1230.602,8132.000
1237.387,8101.000
1244.166,8166.000
1250.940,8208.000
1257.710,8176.000
1264.472,8278.000
1271.231,8442.000
1277.983,8319.000
1284.732,8244.000
1291.473,8484.000
1298.212,8551.000
1304.945,8564.000
1311.671,8364.000
1318.393,8482.000
1325.109,8752.000
1331.822,8397.000
1338.529,8535.000
1345.229,8609.000
1351.926,8359.000
1358.616,8349.000
1365.303,8369.000
1371.982,8480.000
1378.659,8542.000
1385.330,8423.000
1391.994,8759.000
1398.656,8345.000
1405.310,8305.000
1411.961,8364.000
1418.605,8467.000
1425.245,8629.000
1431.881,8799.000
1438.510,9031.000
1445.135,8985.000
1451.754,8821.000
1458.370,8568.000
1464.980,8524.000
1471.583,10066.000
1478.184,8427.000
1484.777,8397.000
1491.368,8404.000
1497.951,8484.000
1504.531,8425.000
1511.107,10652.000
1517.675,8464.000
1524.240,8459.000
1530.799,8435.000
1537.354,8439.000
1543.903,8480.000
1550.448,8512.000
1556.988,8520.000
1563.522,8534.000
1570.052,8609.000
1576.576,8716.000
1583.097,8631.000
1589.612,9410.000
1596.121,8707.000
1602.627,8765.000
1609.126,8727.000
1615.622,8851.000
1622.112,9023.000
1628.598,9110.000
1635.079,9032.000
1641.554,8975.000
1648.025,8941.000
1654.490,9078.000
1660.952,9743.000
1667.407,10157.000
1673.859,9192.000
1680.306,9097.000
1686.746,9121.000
1693.184,9137.000
1699.615,9121.000
1706.042,9218.000
1712.465,9320.000
1718.882,9318.000
1725.295,9403.000
1731.702,9439.000
1738.105,9609.000
1744.502,10355.000
1750.897,9688.000
1757.284,9828.000
1763.669,9960.000
1770.048,10043.000
1776.421,10285.000
1782.792,10352.000
1789.155,10581.000
1795.516,10829.000
1801.872,11199.000
1808.221,11613.000
1814.567,12152.000
1820.907,12929.000
1825.661,13743.000

File: 2023_07_05_CBG_Powder_Pos9_532nm_DePol_230uW_750mm_600gv_3200wn_iDus_100s_3accum_50x_Mit.csv
2487.376,3212.000
2493.186,3259.000
2498.994,3266.000
2504.796,3265.000
2510.594,3319.000
2516.389,3355.000
2522.179,3300.000
2527.964,3347.000
2533.747,3333.000
2539.524,3324.000
2545.298,3382.000
2551.068,3431.000
2556.833,3387.000
2562.594,3437.000
2568.352,3367.000
2574.105,3429.000
2579.854,3456.000
2585.600,3421.000
2591.341,3450.000
2597.077,3484.000
2602.811,3499.000
2608.539,3458.000
2614.264,3452.000
2619.985,3511.000
2625.702,3510.000
2631.414,3539.000
2637.123,3567.000
2642.827,3565.000
2648.528,3506.000
2654.225,3605.000
2659.917,3578.000
2665.605,3569.000
2671.291,3589.000
2676.971,3575.000
2682.647,3584.000
2688.320,3629.000
2693.988,3589.000
2699.652,3633.000
2705.314,3666.000
2710.970,3630.000
2716.622,3713.000
2722.272,3690.000
2727.916,3659.000
2733.556,3750.000
2739.194,3777.000
2744.826,3675.000
2750.454,3712.000
2756.080,3701.000
2761.701,3716.000
2767.317,3706.000
2772.931,3686.000
2778.540,3692.000
2784.145,3749.000
2789.747,3632.000
2795.344,3699.000
2800.937,3750.000
2806.527,3718.000
2812.113,3734.000
2817.694,3739.000
2823.273,3755.000
2828.846,3736.000
2834.416,3807.000
2839.983,3787.000
2845.545,3864.000
2851.103,4034.000
2856.658,4221.000
2862.208,4268.000
2867.755,4280.000
2873.299,4248.000
2878.837,4359.000
2884.372,4302.000
2889.904,4318.000
2895.432,4476.000
2900.955,4798.000
2906.476,4529.000
2911.991,4613.000
2917.503,4649.000
2923.012,4681.000
2928.516,4678.000
2934.017,4606.000
2939.515,4536.000
2945.007,4466.000
2950.496,4170.000
2955.983,4150.000
2961.464,4099.000
2966.941,4249.000
2972.417,4409.000
2977.886,4194.000
2983.353,4124.000
2988.816,4043.000
2994.275,3965.000
2999.730,3947.000
3005.182,3947.000
3010.629,3987.000
3016.073,3939.000
3021.514,3853.000
3026.950,3951.000
3032.382,3914.000
3037.812,4015.000
3043.237,4033.000
3048.658,4035.000
3054.077,4081.000
3059.491,3976.000
3064.900,3887.000
3070.308,3933.000
3075.711,3885.000
3081.109,3822.000
3086.506,3823.000
3091.897,3863.000
3097.285,3802.000
3102.670,3849.000
3108.050,3855.000
3113.427,3851.000
3118.801,3847.000
3124.170,3854.000
3129.536,3856.000
3134.899,3872.000
3140.257,3858.000
3145.612,3845.000
3150.964,3832.000
3156.311,3860.000
3161.655,3810.000
3166.996,3800.000
3172.332,3838.000
3177.665,3780.000
3182.995,3820.000
3188.320,3825.000
3193.642,3833.000
3198.962,3829.000
3204.276,3832.000
3209.587,3765.000
3214.895,3817.000
3220.199,3824.000
3225.499,3863.000
3230.797,3819.000
3236.090,3815.000
3241.379,3781.000
3246.666,3807.000
3251.948,3777.000
3257.226,3842.000
3262.502,3854.000
3267.773,3833.000
3273.041,3780.000
3278.305,3828.000
3283.567,3796.000
3288.824,3789.000
3294.079,3778.000
3299.329,3781.000
3304.575,3815.000
3309.818,3793.000
3315.058,3856.000
3320.294,3800.000
3325.527,3829.000
3330.756,3804.000
3335.981,3854.000
3341.202,3804.000
3346.422,3815.000
3351.636,3816.000
3356.848,3837.000
3362.056,3802.000
3367.260,3877.000
3372.460,3872.000
3377.658,3816.000
3382.852,3787.000
3388.043,3843.000
3393.229,3807.000
3398.412,3896.000
3403.592,3814.000
3408.769,3837.000
3413.941,3855.000
3419.112,3807.000
3424.277,3852.000
3429.439,3870.000
3434.598,3853.000
3439.754,3851.000
3444.906,3808.000
3450.056,3812.000
3455.200,3854.000
3460.342,3857.000
3465.479,3879.000
3470.615,3880.000
3475.746,3811.000
3480.875,3860.000
3485.999,3802.000
3491.120,3813.000
3496.237,3832.000
3501.352,3770.000
3506.463,3851.000
3511.570,3791.000
3516.675,3844.000
3521.775,3788.000
3526.871,3793.000
3531.966,3735.000
3537.056,3819.000
3542.143,3777.000
3547.227,3790.000
3552.307,3779.000
3557.383,3794.000
3562.458,3801.000
3567.528,3791.000
3572.594,3831.000
3577.658,3777.000
3582.718,3809.000
3587.774,3823.000
3592.828,3843.000
3597.877,3805.000
3602.924,3785.000
3607.968,3830.000
3613.007,3851.000
3618.043,3860.000
3623.077,3806.000
3628.107,3817.000
3633.133,3836.000
3638.157,3817.000
3643.176,3818.000
3648.192,3821.000
3653.206,3817.000
3658.216,3836.000
3663.222,3825.000
3668.226,3851.000
3673.226,3842.000
3678.222,3851.000
3683.216,3858.000
3688.206,3851.000
3693.192,3847.000
3698.177,3933.000
3703.156,3900.000
3708.133,3880.000
3713.107,3882.000
3718.077,3906.000
3723.044,3929.000
3728.008,3958.000
3732.969,3932.000
3737.925,3978.000
3742.880,3948.000
3747.831,3955.000
3752.778,3985.000
3757.723,4027.000
3762.663,4031.000
3767.601,4031.000
3772.536,4009.000
3777.467,4082.000
3782.394,4084.000
3787.320,4093.000
3792.241,4047.000
3797.159,4190.000
3802.075,4171.000
3806.987,4155.000
3811.895,4252.000
3816.801,4312.000
3821.703,4372.000
3826.602,4434.000
3831.498,4671.000
3836.391,4657.000
3841.280,4763.000
3846.167,5020.000
3849.829,5316.000

File: 2023_07_05_CBG_Powder_Pos9_532nm_DePol_230uW_750mm_2400gv_0wn_iDus_100s_3accum_50x_Mit.csv
-198.031,2171.000
-196.565,2197.000
-195.096,2191.000
-193.630,2197.000
-192.162,2202.000
-190.696,2215.000
-189.229,2211.000
-187.763,2197.000
-186.296,2233.000
-184.831,2213.000
-183.365,2215.000
-181.900,2202.000
-180.434,2205.000
-178.970,2228.000
-177.505,2243.000
-176.041,2234.000
-174.576,2230.000
-173.113,2224.000
-171.648,2194.000
-170.185,2209.000
-168.721,2222.000
-167.259,2257.000
-165.795,2244.000
-164.333,2259.000
-162.870,2237.000
-161.409,2248.000
-159.946,2238.000
-158.485,2234.000
-157.022,2252.000
-155.562,2235.000
-154.100,2285.000
-152.640,2241.000
-151.178,2259.000
-149.719,2256.000
-148.258,2270.000
-146.799,2281.000
-145.338,2251.000
-143.879,2288.000
-142.419,2288.000
-140.961,2288.000
-139.501,2297.000
-138.043,2287.000
-136.584,2281.000
-135.127,2259.000
-133.668,2277.000
-132.211,2276.000
-130.753,2276.000
-129.296,2290.000
-127.838,2276.000
-126.383,2302.000
-124.925,2281.000
-123.470,2307.000
-122.012,2292.000
-120.557,2287.000
-119.103,2294.000
-117.646,2302.000
-116.192,2329.000
-114.736,2519.000
-113.282,2722.000
-111.826,2323.000
-110.373,2331.000
-108.918,2328.000
-107.465,2354.000
-106.010,2307.000
-104.558,2328.000
-103.104,2340.000
-101.652,2323.000
-100.198,2336.000
-98.746,2328.000
-97.293,2366.000
-95.842,2366.000
-94.389,2395.000
-92.938,2381.000
-91.486,2384.000
-90.035,2387.000
-88.583,2400.000
-87.134,2412.000
-85.682,2421.000
-84.233,2449.000
-82.781,2463.000
-81.333,2475.000
-79.882,2465.000
-78.434,2468.000
-76.983,2473.000
-75.535,2495.000
-74.085,2540.000
-72.638,2535.000
-71.188,2603.000
-69.741,2602.000
-68.292,2620.000
-66.846,2621.000
-65.397,2596.000
-63.951,2626.000
-62.503,2625.000
-61.057,2669.000
-59.610,2647.000
-58.164,2690.000
-56.717,2678.000
-55.272,2698.000
-53.826,2663.000
-52.381,2707.000
-50.935,2720.000
-49.491,2745.000
-48.045,2717.000
-46.602,2771.000
-45.156,2782.000
-43.713,2787.000
-42.268,2855.000
-40.825,2834.000
-39.383,2809.000
-37.939,2763.000
-36.497,2697.000
-35.053,2736.000
-33.611,2732.000
-32.168,2769.000
-30.727,2893.000
-29.284,3075.000
-27.843,3137.000
-26.401,3198.000
-24.961,3292.000
-23.518,3504.000
-22.079,3512.000
-20.637,3367.000
-19.198,3234.000
-17.756,3027.000
-16.318,2945.000
-14.877,3071.000
-13.438,2863.000
-11.998,2749.000
-10.560,2596.000
-9.120,2450.000
-7.683,2223.000
-6.243,2030.000
-4.806,2016.000
-3.367,2137.000
-1.930,2565.000
-0.492,2287.000
0.945,2057.000
2.383,2044.000
3.818,2254.000
5.256,2618.000
6.692,2630.000
8.129,2753.000
9.564,2924.000
11.001,3239.000
12.435,3164.000
13.871,3232.000
15.305,3294.000
16.741,3459.000
18.175,3573.000
19.610,3601.000
21.044,3577.000
22.479,3433.000
23.911,3417.000
25.346,3325.000
26.778,3150.000
28.213,2971.000
29.644,2841.000
31.078,2796.000
32.510,2841.000
33.943,2842.000
35.374,2869.000
36.807,3013.000
38.237,3078.000
39.668,2983.000
41.100,2937.000
42.530,2882.000
43.961,2902.000
45.391,2931.000
46.822,2942.000
48.251,2973.000
49.682,2908.000
51.111,2886.000
52.541,2849.000
53.969,2808.000
55.399,2843.000
56.827,2830.000
58.257,2811.000
59.684,2823.000
61.113,2832.000
62.540,2831.000
63.969,2804.000
65.395,2820.000
66.823,2815.000
68.249,2775.000
69.677,2773.000
71.103,3668.000
72.530,2789.000
73.955,2733.000
75.382,2695.000
76.807,2679.000
78.233,2680.000
79.658,2625.000
81.084,2642.000
82.508,2641.000
83.933,2609.000
85.357,2613.000
86.782,2603.000
88.205,2566.000
89.630,2581.000
91.052,2559.000
92.477,2552.000
93.899,2573.000
95.323,2542.000
96.744,2562.000
98.168,2549.000
99.589,2527.000
101.012,2564.000
102.433,2532.000
103.855,2540.000
105.276,2541.000
106.698,2530.000
108.118,2582.000
109.540,2576.000
110.959,2557.000
112.380,2582.000
113.800,2542.000
115.218,2547.000
116.639,2590.000
118.057,2559.000
119.478,2596.000
120.896,2577.000
122.316,2607.000
123.733,2605.000
125.152,2619.000
126.570,2581.000
127.989,2640.000
129.405,2587.000
130.824,2635.000
132.240,2678.000
133.658,2685.000
135.074,2674.000
136.492,2656.000
137.907,2644.000
139.324,2684.000
140.739,2709.000
142.156,2704.000
143.571,2750.000
144.987,2788.000
146.401,2785.000
147.817,2793.000
149.231,2794.000
150.646,2829.000
152.059,3552.000
153.475,2884.000
154.887,2909.000
156.302,2959.000
157.714,3012.000
159.129,3059.000
160.541,3107.000
161.954,3155.000
163.366,3202.000
164.779,3313.000
166.190,3405.000
167.603,3543.000
169.014,3812.000
170.073,4112.000

File: 2023_07_05_CBG_Powder_Pos9_532nm_Pol_230uW_750mm_600gv_977wn_iDus_100s_3accum_50x_Mit.csv
34.493,4620.000
42.233,7061.000
49.965,5357.000
57.693,4927.000
65.412,4729.000
73.127,5183.000
80.834,4103.000
88.536,3320.000
96.232,2891.000
103.919,2716.000
111.603,2717.000
119.278,2619.000
126.948,2528.000
134.613,2517.000
142.269,2502.000
149.920,2463.000
157.564,2443.000
165.203,2483.000
172.834,2438.000
180.461,2492.000
188.081,2523.000
195.693,2428.000
203.302,2449.000
210.901,2456.000
218.497,2437.000
226.084,2435.000
233.667,2448.000
241.244,2426.000
248.813,2463.000
256.378,2578.000
263.934,2461.000
271.487,2483.000
279.031,2520.000
286.571,2496.000
294.105,2494.000
301.630,2477.000
309.152,2531.000
316.666,2526.000
324.175,2553.000
331.678,2502.000
339.173,2525.000
346.665,2499.000
354.148,2480.000
361.627,2507.000
369.098,2537.000
376.564,2504.000
384.025,2509.000
391.478,2530.000
398.927,2600.000
406.367,2569.000
413.804,2546.000
421.233,2528.000
428.658,2547.000
436.076,2563.000
443.487,2537.000
450.894,2683.000
458.292,2554.000
465.687,2558.000
473.076,2556.000
480.457,2556.000
487.834,2623.000
495.203,2545.000
502.568,2533.000
509.925,2541.000
517.278,2555.000
524.626,2637.000
531.965,2764.000
539.300,2748.000
546.628,2584.000
553.952,2592.000
561.268,2599.000
568.580,2637.000
575.886,2706.000
583.184,2703.000
590.479,2696.000
597.765,2681.000
605.048,2650.000
612.323,2610.000
619.594,2638.000
626.859,2601.000
634.117,2588.000
641.371,2564.000
648.616,2610.000
655.859,2700.000
663.095,2628.000
670.324,2598.000
677.548,2626.000
684.765,2581.000
691.979,2600.000
699.184,2633.000
706.386,2600.000
713.582,2640.000
720.771,2787.000
727.955,2678.000
735.132,2673.000
742.306,2656.000
749.471,2638.000
756.633,2675.000
763.789,3057.000
770.938,2720.000
778.083,2790.000
785.220,2714.000
792.354,2761.000
799.479,2668.000
806.602,2647.000
813.718,2685.000
820.827,2651.000
827.933,2701.000
835.031,2790.000
842.125,2712.000
849.213,2723.000
856.294,2832.000
863.372,2663.000
870.441,2743.000
877.508,2794.000
884.566,2715.000
891.621,2703.000
898.671,2738.000
905.713,2715.000
912.751,2694.000
919.782,2733.000
926.810,2676.000
933.830,2670.000
940.846,2664.000
947.857,2682.000
954.860,2708.000
961.860,2830.000
968.853,2748.000
975.841,2753.000
982.825,2790.000
989.801,3086.000
996.773,3117.000
1003.738,2805.000
1010.700,2853.000
1017.654,2751.000
1024.605,2740.000
1031.550,2831.000
1038.488,2755.000
1045.422,2750.000
1052.349,2837.000
1059.273,2833.000
1066.189,2809.000
1073.102,2800.000
1080.009,2749.000
1086.909,2788.000
1093.806,2991.000
1100.695,2867.000
1107.581,2811.000
1114.462,2767.000
1121.335,2790.000
1128.205,2850.000
1135.067,2787.000
1141.927,2783.000
1148.779,2742.000
1155.627,2746.000
1162.470,2734.000
1169.306,2791.000
1176.139,2846.000
1182.964,2783.000
1189.786,2780.000
1196.601,2771.000
1203.413,2794.000
1210.219,2871.000
1217.018,2832.000
1223.814,2791.000
1230.602,2807.000
1237.387,2788.000
1244.166,2809.000
1250.940,2822.000
1257.710,2849.000
1264.472,2999.000
1271.231,3130.000
1277.983,2980.000
1284.732,2891.000
1291.473,3019.000
1298.212,2967.000
1304.945,2935.000
1311.671,2967.000
1318.393,3355.000
1325.109,3433.000
1331.822,2998.000
1338.529,3200.000
1345.229,3081.000
1351.926,2933.000
1358.616,2904.000
1365.303,2896.000
1371.982,3195.000
1378.659,3058.000
1385.330,3087.000
1391.994,2804.000
1398.656,2807.000
1405.310,2862.000
1411.961,2849.000
1418.605,2894.000
1425.245,3047.000
1431.881,3244.000
1438.510,3289.000
1445.135,3393.000
1451.754,3163.000
1458.370,2977.000
1464.980,2941.000
1471.583,2841.000
1478.184,2897.000
1484.777,2869.000
1491.368,2852.000
1497.951,2888.000
1504.531,2850.000
1511.107,2877.000
1517.675,2884.000
1524.240,2892.000
1530.799,2915.000
1537.354,2896.000
1543.903,2903.000
1550.448,2884.000
1556.988,2887.000
1563.522,2926.000
1570.052,2909.000
1576.576,2942.000
1583.097,2918.000
1589.612,2971.000
1596.121,2963.000
1602.627,3003.000
1609.126,3028.000
1615.622,3155.000
1622.112,3261.000
1628.598,3208.000
1635.079,3081.000
1641.554,3053.000
1648.025,3073.000
1654.490,3302.000
1660.952,4067.000
1667.407,4445.000
1673.859,3248.000
1680.306,3094.000
1686.746,3035.000
1693.184,3048.000
1699.615,3051.000
1706.042,3049.000
1712.465,3081.000
1718.882,3121.000
1725.295,3106.000
1731.702,3072.000
1738.105,3152.000
1744.502,3158.000
1750.897,3211.000
1757.284,3257.000
1763.669,3332.000
1770.048,3334.000
1776.421,3396.000
1782.792,3425.000
1789.155,3470.000
1795.516,3554.000
1801.872,3620.000
1808.221,3807.000
1814.567,3939.000
1820.907,4160.000
1825.661,4410.000

File: 2023_07_05_CBG_Powder_Pos9_532nm_Pol_230uW_750mm_600gv_977wn_iDus_100s_10accum_50x_Mit_Pos2.csv
34.493,12961.000
42.233,13641.000
49.965,14909.000
57.693,13742.000
65.412,14217.000
73.127,14105.000
80.834,10799.000
88.536,10087.000
96.232,8560.000
103.919,8246.000
111.603,8111.000
119.278,8069.000
126.948,7979.000
134.613,8136.000
142.269,8137.000
149.920,7936.000
157.564,7841.000
165.203,7961.000
172.834,8152.000
180.461,7916.000
188.081,7833.000
195.693,7735.000
203.302,7673.000
210.901,7733.000
218.497,7692.000
226.084,9263.000
233.667,7747.000
241.244,9190.000
248.813,8096.000
256.378,8041.000
263.934,7846.000
271.487,8011.000
279.031,8483.000
286.571,8891.000
294.105,8215.000
301.630,7982.000
309.152,7949.000
316.666,8205.000
324.175,9304.000
331.678,8605.000
339.173,8356.000
346.665,8718.000
354.148,8483.000
361.627,8049.000
369.098,8021.000
376.564,7914.000
384.025,7818.000
391.478,7827.000
398.927,7868.000
406.367,8232.000
413.804,7864.000
421.233,7904.000
428.658,8079.000
436.076,8403.000
443.487,7929.000
450.894,8316.000
458.292,8093.000
465.687,7887.000
473.076,7849.000
480.457,7870.000
487.834,7954.000
495.203,7870.000
502.568,7814.000
509.925,7869.000
517.278,7915.000
524.626,7966.000
531.965,8266.000
539.300,8292.000
546.628,7928.000
553.952,7991.000
561.268,7982.000
568.580,8090.000
575.886,8666.000
583.184,8330.000
590.479,8162.000
597.765,8146.000
605.048,8123.000
612.323,8079.000
619.594,8000.000
626.859,7908.000
634.117,7962.000
641.371,7974.000
648.616,7887.000
655.859,8046.000
663.095,8038.000
670.324,7967.000
677.548,8078.000
684.765,7988.000
691.979,8028.000
699.184,7994.000
706.386,8014.000
713.582,8176.000
720.771,8532.000
727.955,8569.000
735.132,8204.000
742.306,8263.000
749.471,8152.000
756.633,8192.000
763.789,8779.000
770.938,8367.000
778.083,8661.000
785.220,8341.000
792.354,8442.000
799.479,8757.000
806.602,8192.000
813.718,8122.000
820.827,8172.000
827.933,8195.000
835.031,8278.000
842.125,8231.000
849.213,8311.000
856.294,8334.000
863.372,8142.000
870.441,8174.000
877.508,8293.000
884.566,8205.000
891.621,8220.000
898.671,8303.000
905.713,8243.000
912.751,8234.000
919.782,8154.000
926.810,8128.000
933.830,8083.000
940.846,8158.000
947.857,8156.000
954.860,9409.000
961.860,8323.000
968.853,8237.000
975.841,8315.000
982.825,8314.000
989.801,8451.000
996.773,8579.000
1003.738,8272.000
1010.700,8313.000
1017.654,8265.000
1024.605,8767.000
1031.550,8407.000
1038.488,8298.000
1045.422,8264.000
1052.349,8353.000
1059.273,8402.000
1066.189,8483.000
1073.102,8420.000
1080.009,8336.000
1086.909,8391.000
1093.806,8903.000
1100.695,8455.000
1107.581,8390.000
1114.462,8368.000
1121.335,8904.000
1128.205,8681.000
1135.067,8464.000
1141.927,8399.000
1148.779,8329.000
1155.627,8339.000
1162.470,8416.000
1169.306,8466.000
1176.139,8470.000
1182.964,8404.000
1189.786,8404.000
1196.601,8369.000
1203.413,8515.000
1210.219,8515.000
1217.018,8537.000
1223.814,8601.000
1230.602,8461.000
1237.387,8486.000
1244.166,8527.000
1250.940,8537.000
1257.710,8623.000
1264.472,8627.000
1271.231,8803.000
1277.983,8688.000
1284.732,8631.000
1291.473,9014.000
1298.212,9182.000
1304.945,10656.000
1311.671,8832.000
1318.393,8791.000
1325.109,9020.000
1331.822,8739.000
1338.529,8941.000
1345.229,8962.000
1351.926,8792.000
1358.616,8577.000
1365.303,8595.000
1371.982,8797.000
1378.659,8719.000
1385.330,8800.000
1391.994,8630.000
1398.656,8648.000
1405.310,8675.000
1411.961,8674.000
1418.605,8919.000
1425.245,9312.000
1431.881,9496.000
1438.510,9863.000
1445.135,9561.000
1451.754,9466.000
1458.370,9007.000
1464.980,8989.000
1471.583,9151.000
1478.184,8833.000
1484.777,8841.000
1491.368,8781.000
1497.951,8794.000
1504.531,8828.000
1511.107,8829.000
1517.675,8850.000
1524.240,8863.000
1530.799,8879.000
1537.354,8828.000
1543.903,8861.000
1550.448,8915.000
1556.988,8946.000
1563.522,8941.000
1570.052,9009.000
1576.576,8989.000
1583.097,8983.000
1589.612,9055.000
1596.121,9046.000
1602.627,9091.000
1609.126,9147.000
1615.622,9252.000
1622.112,9404.000
1628.598,9410.000
1635.079,9358.000
1641.554,9221.000
1648.025,9313.000
1654.490,9531.000
1660.952,10246.000
1667.407,10868.000
1673.859,9622.000
1680.306,9501.000
1686.746,9350.000
1693.184,11645.000
1699.615,9508.000
1706.042,9629.000
1712.465,9670.000
1718.882,9704.000
1725.295,9754.000
1731.702,9760.000
1738.105,9843.000
1744.502,9985.000
1750.897,10151.000
1757.284,10119.000
1763.669,10310.000
1770.048,10454.000
1776.421,10568.000
1782.792,10738.000
1789.155,10898.000
1795.516,11124.000
1801.872,11476.000
1808.221,11873.000
1814.567,12466.000
1820.907,13261.000
1825.661,14152.000