Folder: Data/Raman (part 11)

File: 2023_07_05_CBG_Powder_Pos9_532nm_UnPol_230uW_750mm_2400gv_0wn_iDus_100s_3accum_50x_Mit_Pos2.csv
-198.031,2076.000
-196.565,2091.000
-195.096,2078.000
-193.630,2107.000
-192.162,2083.000
-190.696,2096.000
-189.229,2099.000
-187.763,2103.000
-186.296,2103.000
-184.831,2101.000
-183.365,2101.000
-181.900,2098.000
-180.434,2103.000
-178.970,2112.000
-177.505,2119.000
-176.041,2089.000
-174.576,2098.000
-173.113,2106.000
-171.648,2116.000
-170.185,2110.000
-168.721,2106.000
-167.259,2112.000
-165.795,2118.000
-164.333,2113.000
-162.870,2112.000
-161.409,2117.000
-159.946,2124.000
-158.485,2097.000
-157.022,2096.000
-155.562,2114.000
-154.100,2116.000
-152.640,2124.000
-151.178,2126.000
-149.719,2126.000
-148.258,2125.000
-146.799,2128.000
-145.338,2143.000
-143.879,2148.000
-142.419,2168.000
-140.961,2130.000
-139.501,2132.000
-138.043,2142.000
-136.584,2150.000
-135.127,2131.000
-133.668,2130.000
-132.211,2169.000
-130.753,2137.000
-129.296,2157.000
-127.838,2111.000
-126.383,2150.000
-124.925,2139.000
-123.470,2136.000
-122.012,2162.000
-120.557,2170.000
-119.103,2147.000
-117.646,2144.000
-116.192,2161.000
-114.736,2166.000
-113.282,2138.000
-111.826,2172.000
-110.373,2165.000
-108.918,2152.000
-107.465,2163.000
-106.010,2161.000
-104.558,2165.000
-103.104,2171.000
-101.652,2176.000
-100.198,2151.000
-98.746,2182.000
-97.293,2193.000
-95.842,2616.000
-94.389,2228.000
-92.938,2229.000
-91.486,2220.000
-90.035,2260.000
-88.583,2263.000
-87.134,2276.000
-85.682,2298.000
-84.233,2353.000
-82.781,2359.000
-81.333,2357.000
-79.882,2393.000
-78.434,2389.000
-76.983,2401.000
-75.535,2442.000
-74.085,2491.000
-72.638,2569.000
-71.188,2597.000
-69.741,2602.000
-68.292,2595.000
-66.846,2575.000
-65.397,2570.000
-63.951,2556.000
-62.503,2579.000
-61.057,2575.000
-59.610,2613.000
-58.164,2618.000
-56.717,2574.000
-55.272,2574.000
-53.826,2599.000
-52.381,2647.000
-50.935,2730.000
-49.491,2728.000
-48.045,2675.000
-46.602,2677.000
-45.156,2646.000
-43.713,2670.000
-42.268,2715.000
-40.825,2715.000
-39.383,2715.000
-37.939,2614.000
-36.497,2535.000
-35.053,2516.000
-33.611,2508.000
-32.168,2548.000
-30.727,2659.000
-29.284,2830.000
-27.843,2962.000
-26.401,3143.000
-24.961,3323.000
-23.518,3568.000
-22.079,3456.000
-20.637,3253.000
-19.198,3093.000
-17.756,2871.000
-16.318,2758.000
-14.877,3058.000
-13.438,2933.000
-11.998,2604.000
-10.560,2467.000
-9.120,2342.000
-7.683,2165.000
-6.243,2025.000
-4.806,2032.000
-3.367,2115.000
-1.930,2501.000
-0.492,2442.000
0.945,2142.000
2.383,2048.000
3.818,2157.000
5.256,2423.000
6.692,2446.000
8.129,2599.000
9.564,2760.000
11.001,3396.000
12.435,3102.000
13.871,2963.000
15.305,3060.000
16.741,3294.000
18.175,3453.000
19.610,3588.000
21.044,3768.000
22.479,3473.000
23.911,3320.000
25.346,3207.000
26.778,2952.000
28.213,2725.000
29.644,2629.000
31.078,2589.000
32.510,2611.000
33.943,2660.000
35.374,2754.000
36.807,2871.000
38.237,2986.000
39.668,2892.000
41.100,3085.000
42.530,2756.000
43.961,2769.000
45.391,2860.000
46.822,2972.000
48.251,2935.000
49.682,2867.000
51.111,2820.000
52.541,2787.000
53.969,2788.000
55.399,6733.000
56.827,2789.000
58.257,2796.000
59.684,2779.000
61.113,2808.000
62.540,2797.000
63.969,2818.000
65.395,2848.000
66.823,2825.000
68.249,2856.000
69.677,2822.000
71.103,2762.000
72.530,2731.000
73.955,2666.000
75.382,2607.000
76.807,2559.000
78.233,2558.000
79.658,2527.000
81.084,2508.000
82.508,2533.000
83.933,2511.000
85.357,2519.000
86.782,2446.000
88.205,2440.000
89.630,2382.000
91.052,2346.000
92.477,2374.000
93.899,2372.000
95.323,2376.000
96.744,2376.000
98.168,2359.000
99.589,2355.000
101.012,2364.000
102.433,2372.000
103.855,2381.000
105.276,2384.000
106.698,2390.000
108.118,2395.000
109.540,2376.000
110.959,2341.000
112.380,2380.000
113.800,2376.000
115.218,2384.000
116.639,2385.000
118.057,2400.000
119.478,2631.000
120.896,2394.000
122.316,2401.000
123.733,2418.000
125.152,2411.000
126.570,2426.000
127.989,2473.000
129.405,2457.000
130.824,2454.000
132.240,2478.000
133.658,2501.000
135.074,2513.000
136.492,2530.000
137.907,2551.000
139.324,2517.000
140.739,2563.000
142.156,2540.000
143.571,2581.000
144.987,2638.000
146.401,2631.000
147.817,2640.000
149.231,2660.000
150.646,2640.000
152.059,2715.000
153.475,2710.000
154.887,2736.000
156.302,2803.000
157.714,2855.000
159.129,2888.000
160.541,2912.000
161.954,2994.000
163.366,3054.000
164.779,3154.000
166.190,3270.000
167.603,3482.000
169.014,3688.000
170.073,3938.000

File: 2024_10_30_Sample5_CBD_Proline_Cocrystal_Position1_532nm_960wn_1p3mW_10sec_4Scans_Depol.csv
15.605,700.000,708.000,705.000,700.000
25.299,798.000,797.000,795.000,785.000
34.981,807.000,809.000,820.000,823.000
44.655,772.000,751.000,761.000,762.000
54.319,768.000,771.000,763.000,767.000
63.971,796.000,810.000,804.000,788.000
73.615,766.000,764.000,744.000,768.000
83.249,728.000,744.000,735.000,728.000
92.872,750.000,752.000,747.000,740.000
102.486,750.000,746.000,752.000,749.000
112.091,716.000,720.000,738.000,718.000
121.683,695.000,699.000,696.000,692.000
131.268,682.000,686.000,678.000,681.000
140.843,680.000,682.000,674.000,679.000
150.406,663.000,677.000,671.000,666.000
159.962,664.000,671.000,666.000,667.000
169.508,668.000,663.000,667.000,671.000
179.041,673.000,663.000,665.000,675.000
188.567,658.000,666.000,666.000,669.000
198.084,666.000,660.000,668.000,665.000
207.588,659.000,663.000,662.000,668.000
217.085,667.000,667.000,675.000,667.000
226.573,679.000,665.000,675.000,673.000
236.048,678.000,680.000,675.000,677.000
245.516,676.000,666.000,667.000,666.000
254.974,679.000,683.000,677.000,677.000
264.421,683.000,672.000,680.000,669.000
273.860,672.000,663.000,662.000,672.000
283.289,674.000,672.000,681.000,679.000
292.707,670.000,670.000,664.000,666.000
302.117,667.000,664.000,655.000,665.000
311.517,662.000,666.000,667.000,667.000
320.906,661.000,670.000,668.000,667.000
330.288,685.000,689.000,695.000,688.000
339.660,672.000,677.000,674.000,686.000
349.020,666.000,663.000,667.000,671.000
358.373,655.000,666.000,664.000,671.000
367.717,672.000,662.000,666.000,668.000
377.049,669.000,661.000,659.000,672.000
386.374,675.000,669.000,674.000,669.000
395.689,679.000,672.000,676.000,671.000
404.993,673.000,683.000,671.000,670.000
414.289,673.000,669.000,668.000,669.000
423.574,674.000,672.000,668.000,678.000
432.851,670.000,666.000,668.000,677.000
442.120,665.000,659.000,674.000,671.000
451.376,666.000,671.000,667.000,668.000
460.626,672.000,669.000,670.000,674.000
469.866,684.000,678.000,679.000,676.000
479.095,669.000,686.000,667.000,681.000
488.317,680.000,683.000,688.000,680.000
497.529,678.000,677.000,673.000,666.000
506.730,675.000,668.000,672.000,668.000
515.924,675.000,671.000,675.000,673.000
525.109,690.000,697.000,684.000,693.000
534.282,678.000,687.000,688.000,679.000
543.448,683.000,691.000,691.000,687.000
552.605,709.000,701.000,690.000,695.000
561.751,679.000,687.000,676.000,679.000
570.889,679.000,678.000,670.000,675.000
580.019,698.000,698.000,704.000,696.000
589.137,720.000,707.000,720.000,716.000
598.248,695.000,692.000,684.000,696.000
607.350,690.000,671.000,677.000,687.000
616.441,679.000,684.000,677.000,674.000
625.525,667.000,678.000,676.000,684.000
634.600,673.000,674.000,671.000,677.000
643.664,679.000,682.000,680.000,679.000
652.720,688.000,695.000,689.000,697.000
661.768,676.000,678.000,688.000,685.000
670.805,678.000,678.000,683.000,679.000
679.834,667.000,676.000,678.000,681.000
688.855,677.000,671.000,674.000,680.000
697.865,674.000,680.000,673.000,681.000
706.868,670.000,680.000,681.000,679.000
715.861,678.000,680.000,675.000,682.000
724.844,674.000,677.000,675.000,676.000
733.820,674.000,681.000,670.000,689.000
742.787,685.000,680.000,681.000,678.000
751.743,696.000,692.000,687.000,687.000
760.692,692.000,685.000,680.000,696.000
769.633,691.000,707.000,704.000,711.000
778.562,731.000,748.000,738.000,767.000
787.485,704.000,688.000,688.000,690.000
796.399,684.000,687.000,692.000,691.000
805.302,695.000,720.000,716.000,704.000
814.198,698.000,691.000,686.000,689.000
823.085,691.000,691.000,689.000,694.000
831.962,682.000,680.000,690.000,688.000
840.832,686.000,703.000,687.000,693.000
849.693,697.000,691.000,697.000,701.000
858.543,713.000,708.000,704.000,711.000
867.387,712.000,705.000,703.000,715.000
876.222,689.000,687.000,684.000,692.000
885.046,691.000,692.000,692.000,701.000
893.864,700.000,695.000,699.000,698.000
902.673,697.000,693.000,696.000,695.000
911.471,682.000,687.000,691.000,682.000
920.262,697.000,694.000,689.000,697.000
929.045,689.000,696.000,690.000,703.000
937.817,683.000,682.000,677.000,687.000
946.583,679.000,675.000,695.000,701.000
955.340,676.000,685.000,686.000,684.000
964.087,692.000,689.000,694.000,691.000
972.827,689.000,697.000,700.000,697.000
981.558,703.000,711.000,707.000,700.000
990.279,698.000,704.000,696.000,706.000
998.993,704.000,709.000,694.000,703.000
1007.699,729.000,724.000,716.000,724.000
1016.394,717.000,712.000,708.000,723.000
1025.083,697.000,699.000,702.000,699.000
1033.763,687.000,697.000,694.000,697.000
1042.433,704.000,704.000,701.000,690.000
1051.096,695.000,698.000,705.000,706.000
1059.751,698.000,706.000,711.000,716.000
1068.395,702.000,688.000,710.000,705.000
1077.033,711.000,719.000,714.000,721.000
1085.663,695.000,706.000,688.000,699.000
1094.282,713.000,722.000,703.000,714.000
1102.895,753.000,738.000,743.000,739.000
1111.499,705.000,715.000,712.000,719.000
1120.093,702.000,700.000,686.000,699.000
1128.681,700.000,713.000,710.000,707.000
1137.261,708.000,703.000,703.000,700.000
1145.830,702.000,702.000,703.000,704.000
1154.392,687.000,685.000,695.000,697.000
1162.947,699.000,702.000,684.000,696.000
1171.491,713.000,711.000,717.000,716.000
1180.029,711.000,701.000,701.000,704.000
1188.558,705.000,702.000,698.000,699.000
1197.078,699.000,702.000,693.000,694.000
1205.591,690.000,688.000,690.000,700.000
1214.096,698.000,716.000,703.000,707.000
1222.590,725.000,698.000,704.000,707.000
1231.079,704.000,697.000,700.000,706.000
1239.559,701.000,691.000,693.000,710.000
1248.029,700.000,702.000,707.000,708.000
1256.493,697.000,695.000,690.000,699.000
1264.947,695.000,697.000,692.000,700.000
1273.394,714.000,714.000,712.000,708.000
1281.834,709.000,703.000,709.000,702.000
1290.263,720.000,717.000,705.000,725.000
1298.686,731.000,721.000,726.000,732.000
1307.101,756.000,756.000,756.000,747.000
1315.507,709.000,713.000,711.000,714.000
1323.905,729.000,735.000,735.000,742.000
1332.296,752.000,744.000,735.000,745.000
1340.677,736.000,751.000,743.000,773.000
1349.052,726.000,701.000,712.000,719.000
1357.419,713.000,718.000,728.000,729.000
1365.776,741.000,734.000,738.000,765.000
1374.126,763.000,749.000,750.000,754.000
1382.469,693.000,704.000,696.000,707.000
1390.802,703.000,706.000,699.000,704.000
1399.128,706.000,713.000,709.000,703.000
1407.447,695.000,691.000,709.000,714.000
1415.756,701.000,700.000,698.000,705.000
1424.059,753.000,748.000,747.000,753.000
1432.354,776.000,785.000,797.000,797.000
1440.639,774.000,756.000,765.000,759.000
1448.918,752.000,746.000,762.000,747.000
1457.190,723.000,728.000,726.000,722.000
1465.451,699.000,695.000,703.000,703.000
1473.707,711.000,690.000,698.000,693.000
1481.954,703.000,682.000,693.000,699.000
1490.192,689.000,697.000,684.000,695.000
1498.424,696.000,689.000,689.000,691.000
1506.648,706.000,690.000,696.000,685.000
1514.863,695.000,702.000,698.000,690.000
1523.071,690.000,687.000,691.000,700.000
1531.272,681.000,690.000,689.000,688.000
1539.463,692.000,690.000,692.000,692.000
1547.648,693.000,690.000,691.000,693.000
1555.825,695.000,683.000,692.000,693.000
1563.993,703.000,692.000,686.000,693.000
1572.155,699.000,691.000,695.000,706.000
1580.309,708.000,712.000,697.000,724.000
1588.454,705.000,690.000,701.000,701.000
1596.593,691.000,695.000,699.000,698.000
1604.724,697.000,700.000,696.000,703.000
1612.845,722.000,715.000,711.000,716.000
1620.961,744.000,732.000,738.000,748.000
1629.069,730.000,729.000,741.000,726.000
1637.168,764.000,777.000,775.000,798.000
1645.260,734.000,733.000,740.000,721.000
1653.345,776.000,761.000,767.000,766.000
1661.421,779.000,771.000,781.000,763.000
1669.491,709.000,703.000,700.000,707.000
1677.553,687.000,694.000,694.000,700.000
1685.606,698.000,695.000,682.000,699.000
1693.653,691.000,699.000,690.000,699.000
1701.693,693.000,697.000,688.000,699.000
1709.723,689.000,679.000,683.000,692.000
1717.748,689.000,685.000,701.000,692.000
1725.765,684.000,690.000,692.000,691.000
1733.772,697.000,688.000,701.000,697.000
1741.774,693.000,684.000,684.000,690.000
1749.769,692.000,682.000,693.000,705.000
1757.754,695.000,691.000,692.000,689.000
1765.733,692.000,703.000,699.000,683.000
1773.705,686.000,697.000,696.000,693.000
1781.668,704.000,691.000,696.000,695.000
1789.625,694.000,690.000,690.000,703.000
1797.574,699.000,701.000,701.000,695.000
1805.515,690.000,692.000,697.000,699.000
1810.277,701.000,705.000,690.000,703.000

File: 2024_10_30_Sample5_CBD_Proline_Cocrystal_Position1_532nm_960wn_1p3mW_10sec_4Scans_Pol.csv
15.605,700.000,704.000,703.000,703.000
25.299,799.000,787.000,790.000,785.000
34.981,807.000,793.000,800.000,818.000
44.655,758.000,760.000,750.000,767.000
54.319,752.000,748.000,761.000,750.000
63.971,807.000,795.000,802.000,792.000
73.615,770.000,765.000,759.000,756.000
83.249,730.000,742.000,717.000,732.000
92.872,744.000,756.000,727.000,747.000
102.486,745.000,764.000,745.000,752.000
112.091,729.000,719.000,723.000,719.000
121.683,689.000,691.000,692.000,683.000
131.268,677.000,682.000,674.000,682.000
140.843,675.000,672.000,674.000,666.000
150.406,672.000,670.000,670.000,678.000
159.962,675.000,672.000,671.000,668.000
169.508,665.000,663.000,666.000,668.000
179.041,663.000,668.000,668.000,664.000
188.567,664.000,663.000,668.000,664.000
198.084,660.000,674.000,663.000,664.000
207.588,676.000,659.000,652.000,670.000
217.085,661.000,670.000,669.000,658.000
226.573,674.000,671.000,666.000,676.000
236.048,675.000,673.000,665.000,681.000
245.516,662.000,662.000,676.000,672.000
254.974,681.000,687.000,676.000,681.000
264.421,673.000,673.000,674.000,670.000
273.860,668.000,672.000,673.000,665.000
283.289,673.000,668.000,675.000,665.000
292.707,671.000,668.000,672.000,665.000
302.117,667.000,661.000,668.000,661.000
311.517,670.000,663.000,665.000,670.000
320.906,661.000,664.000,662.000,671.000
330.288,683.000,691.000,698.000,690.000
339.660,682.000,678.000,674.000,672.000
349.020,676.000,662.000,667.000,669.000
358.373,661.000,669.000,663.000,667.000
367.717,657.000,679.000,667.000,671.000
377.049,660.000,664.000,663.000,663.000
386.374,681.000,682.000,669.000,665.000
395.689,666.000,673.000,667.000,673.000
404.993,676.000,677.000,678.000,660.000
414.289,667.000,668.000,670.000,661.000
423.574,675.000,664.000,671.000,671.000
432.851,672.000,670.000,671.000,668.000
442.120,667.000,671.000,668.000,659.000
451.376,674.000,664.000,670.000,674.000
460.626,685.000,676.000,666.000,671.000
469.866,674.000,679.000,670.000,676.000
479.095,674.000,676.000,686.000,669.000
488.317,692.000,672.000,685.000,680.000
497.529,686.000,685.000,669.000,676.000
506.730,667.000,674.000,668.000,681.000
515.924,667.000,667.000,668.000,676.000
525.109,688.000,696.000,687.000,695.000
534.282,692.000,678.000,678.000,685.000
543.448,690.000,692.000,689.000,681.000
552.605,699.000,686.000,711.000,692.000
561.751,684.000,681.000,671.000,679.000
570.889,678.000,680.000,677.000,675.000
580.019,702.000,696.000,690.000,694.000
589.137,707.000,706.000,711.000,696.000
598.248,686.000,680.000,689.000,682.000
607.350,675.000,686.000,681.000,680.000
616.441,675.000,674.000,671.000,674.000
625.525,673.000,667.000,667.000,680.000
634.600,682.000,678.000,674.000,663.000
643.664,674.000,671.000,678.000,684.000
652.720,693.000,696.000,697.000,690.000
661.768,684.000,679.000,675.000,686.000
670.805,676.000,675.000,669.000,674.000
679.834,681.000,686.000,670.000,670.000
688.855,675.000,674.000,671.000,673.000
697.865,677.000,675.000,679.000,675.000
706.868,670.000,674.000,670.000,676.000
715.861,669.000,669.000,680.000,667.000
724.844,677.000,673.000,674.000,673.000
733.820,678.000,675.000,678.000,673.000
742.787,682.000,682.000,681.000,676.000
751.743,688.000,696.000,686.000,693.000
760.692,683.000,676.000,679.000,683.000
769.633,701.000,702.000,699.000,700.000
778.562,740.000,743.000,737.000,737.000
787.485,691.000,695.000,691.000,691.000
796.399,698.000,691.000,685.000,688.000
805.302,690.000,711.000,697.000,711.000
814.198,689.000,685.000,686.000,690.000
823.085,683.000,694.000,692.000,687.000
831.962,679.000,688.000,679.000,687.000
840.832,684.000,686.000,687.000,676.000
849.693,692.000,690.000,691.000,688.000
858.543,710.000,704.000,706.000,714.000
867.387,695.000,706.000,699.000,691.000
876.222,684.000,688.000,691.000,688.000
885.046,692.000,691.000,691.000,685.000
893.864,702.000,687.000,685.000,693.000
902.673,694.000,701.000,685.000,691.000
911.471,700.000,696.000,690.000,690.000
920.262,691.000,684.000,679.000,695.000
929.045,683.000,681.000,677.000,679.000
937.817,684.000,686.000,671.000,688.000
946.583,685.000,678.000,684.000,677.000
955.340,689.000,677.000,685.000,680.000
964.087,692.000,693.000,693.000,691.000
972.827,697.000,697.000,696.000,688.000
981.558,712.000,699.000,707.000,702.000
990.279,685.000,694.000,698.000,694.000
998.993,699.000,692.000,703.000,697.000
1007.699,713.000,713.000,702.000,713.000
1016.394,706.000,704.000,710.000,715.000
1025.083,690.000,703.000,699.000,683.000
1033.763,691.000,695.000,694.000,690.000
1042.433,693.000,689.000,699.000,691.000
1051.096,695.000,694.000,695.000,694.000
1059.751,701.000,699.000,693.000,701.000
1068.395,694.000,695.000,704.000,702.000
1077.033,715.000,727.000,701.000,703.000
1085.663,693.000,695.000,702.000,689.000
1094.282,712.000,705.000,703.000,705.000
1102.895,736.000,737.000,731.000,734.000
1111.499,699.000,715.000,705.000,717.000
1120.093,684.000,690.000,696.000,695.000
1128.681,693.000,707.000,707.000,689.000
1137.261,696.000,701.000,698.000,695.000
1145.830,698.000,696.000,692.000,703.000
1154.392,705.000,687.000,690.000,693.000
1162.947,694.000,678.000,684.000,677.000
1171.491,715.000,706.000,711.000,699.000
1180.029,705.000,707.000,695.000,697.000
1188.558,688.000,703.000,691.000,701.000
1197.078,694.000,692.000,694.000,682.000
1205.591,697.000,703.000,696.000,694.000
1214.096,700.000,692.000,698.000,694.000
1222.590,692.000,702.000,692.000,704.000
1231.079,706.000,714.000,705.000,697.000
1239.559,697.000,686.000,684.000,686.000
1248.029,698.000,701.000,698.000,710.000
1256.493,699.000,694.000,686.000,684.000
1264.947,697.000,696.000,697.000,695.000
1273.394,702.000,702.000,699.000,702.000
1281.834,702.000,705.000,714.000,713.000
1290.263,718.000,716.000,712.000,699.000
1298.686,739.000,722.000,719.000,721.000
1307.101,729.000,745.000,742.000,742.000
1315.507,713.000,707.000,699.000,710.000
1323.905,723.000,715.000,726.000,735.000
1332.296,732.000,740.000,739.000,736.000
1340.677,746.000,734.000,735.000,734.000
1349.052,720.000,715.000,712.000,706.000
1357.419,720.000,715.000,714.000,718.000
1365.776,740.000,734.000,733.000,735.000
1374.126,766.000,739.000,744.000,746.000
1382.469,693.000,704.000,703.000,697.000
1390.802,695.000,698.000,692.000,695.000
1399.128,705.000,704.000,698.000,694.000
1407.447,691.000,699.000,685.000,694.000
1415.756,702.000,694.000,695.000,688.000
1424.059,746.000,751.000,726.000,750.000
1432.354,787.000,776.000,771.000,779.000
1440.639,744.000,754.000,739.000,761.000
1448.918,746.000,733.000,726.000,733.000
1457.190,717.000,723.000,713.000,720.000
1465.451,690.000,700.000,698.000,699.000
1473.707,687.000,690.000,694.000,689.000
1481.954,689.000,695.000,691.000,690.000
1490.192,684.000,681.000,681.000,695.000
1498.424,687.000,685.000,689.000,693.000
1506.648,681.000,694.000,686.000,690.000
1514.863,674.000,687.000,702.000,691.000
1523.071,681.000,691.000,688.000,689.000
1531.272,684.000,681.000,684.000,690.000
1539.463,694.000,684.000,691.000,687.000
1547.648,692.000,681.000,685.000,682.000
1555.825,682.000,679.000,681.000,686.000
1563.993,695.000,685.000,684.000,695.000
1572.155,696.000,697.000,689.000,697.000
1580.309,696.000,701.000,699.000,696.000
1588.454,691.000,686.000,692.000,702.000
1596.593,685.000,691.000,696.000,691.000
1604.724,684.000,679.000,687.000,695.000
1612.845,703.000,695.000,706.000,710.000
1620.961,724.000,729.000,737.000,735.000
1629.069,728.000,722.000,727.000,733.000
1637.168,771.000,770.000,747.000,756.000
1645.260,724.000,731.000,726.000,731.000
1653.345,770.000,758.000,760.000,769.000
1661.421,760.000,757.000,763.000,775.000
1669.491,700.000,709.000,699.000,695.000
1677.553,689.000,694.000,693.000,692.000
1685.606,691.000,688.000,689.000,689.000
1693.653,690.000,687.000,691.000,691.000
1701.693,688.000,684.000,687.000,690.000
1709.723,688.000,697.000,685.000,681.000
1717.748,684.000,678.000,682.000,681.000
1725.765,684.000,680.000,679.000,690.000
1733.772,693.000,692.000,691.000,688.000
1741.774,681.000,683.000,680.000,685.000
1749.769,690.000,685.000,687.000,680.000
1757.754,688.000,686.000,686.000,683.000
1765.733,688.000,697.000,685.000,686.000
1773.705,692.000,688.000,691.000,695.000
1781.668,687.000,684.000,680.000,684.000
1789.625,682.000,691.000,695.000,688.000
1797.574,690.000,688.000,696.000,685.000
1805.515,689.000,694.000,690.000,695.000
1810.277,694.000,694.000,696.000,695.000