Folder: Data/XRD (part 6)

File: Figure1_SQdata.csv
Q,CBD_75C_SQ,75C_EPSR,Q,CBD_SCL_SQ,25C_EPSR
0.5,1.02741,1.70506,0.1,-1.47961,-1.87369
0.65,1.26021,1.40877,0.25,-1.29789,-0.87705
0.8,1.3021,1.62684,0.4,-0.62681,-0.20878
0.95,1.80397,1.96775,0.55,0.19614,0.03629
1.1,2.07742,2.19796,0.7,-0.26416,0.21385
1.25,2.29219,2.45548,0.85,-0.12202,0.25702
1.4,2.5405,2.57816,1,0.57604,0.37468
1.55,2.40086,2.4452,1.15,0.83196,0.92423
1.7,1.97211,2.11672,1.3,1.25071,1.42459
1.85,1.55634,1.63854,1.45,1.51505,1.34523
2,1.25577,1.31583,1.6,1.18994,0.98741
2.15,1.04915,1.23525,1.75,0.62862,0.60621
2.3,0.9352,1.07567,1.9,0.19278,0.09063
2.45,0.92116,0.9645,2.05,-0.09356,-0.35887
2.6,0.98436,1.12734,2.2,-0.29989,-0.49961
2.75,1.10661,1.29566,2.35,-0.39803,-0.51452
2.9,1.26119,1.38955,2.5,-0.37051,-0.55665
3.05,1.351,1.48647,2.65,-0.23958,-0.4796
3.2,1.32371,1.42309,2.8,-0.0466,-0.21608
3.35,1.22959,1.26394,2.95,0.11557,0.02741
3.5,1.14213,1.18844,3.1,0.15672,0.04582
3.65,1.09165,1.11829,3.25,0.05309,-0.0836
3.8,1.07791,1.04234,3.4,-0.10356,-0.18821
3.95,1.10218,1.00637,3.55,-0.24313,-0.27916
4.1,1.15445,0.96902,3.7,-0.35007,-0.39557
4.25,1.23248,0.98758,3.85,-0.42419,-0.47355
4.4,1.33315,1.07835,4,-0.46925,-0.51063
4.55,1.46781,1.18641,4.15,-0.48824,-0.54583
4.7,1.6527,1.39058,4.3,-0.48015,-0.54992
4.85,1.89571,1.6972,4.45,-0.42594,-0.49439
5,2.16246,1.97166,4.6,-0.30411,-0.36536
5.15,2.37651,2.17806,4.75,-0.10125,-0.14852
5.3,2.43525,2.31324,4.9,0.16853,0.12767
5.45,2.33057,2.32177,5.05,0.45009,0.42361
5.6,2.15825,2.19642,5.2,0.67507,0.68202
5.75,1.97924,1.98641,5.35,0.79744,0.80948
5.9,1.82185,1.77413,5.5,0.80143,0.79623
6.05,1.68575,1.60757,5.65,0.70041,0.70863
6.2,1.57874,1.45493,5.8,0.52465,0.56464
6.35,1.49523,1.32665,5.95,0.31993,0.37848
6.5,1.42786,1.26403,6.1,0.12757,0.19595
6.65,1.35929,1.21869,6.25,-0.03227,0.03148
6.8,1.28772,1.1538,6.4,-0.15268,-0.1023
6.95,1.2194,1.1162,6.55,-0.24255,-0.18671
7.1,1.16781,1.11508,6.7,-0.31279,-0.2499
7.25,1.15392,1.12125,6.85,-0.37325,-0.31406
7.4,1.18362,1.15791,7,-0.41712,-0.36232
7.55,1.25951,1.24967,7.15,-0.44003,-0.38868
7.7,1.36252,1.35429,7.3,-0.42794,-0.38765
7.85,1.46492,1.42365,7.45,-0.37825,-0.34838
8,1.54869,1.46379,7.6,-0.29868,-0.28618
8.15,1.60818,1.50333,7.75,-0.20925,-0.21862
8.3,1.65394,1.5551,7.9,-0.12573,-0.14994
8.45,1.6884,1.61026,8.05,-0.05548,-0.0907
8.6,1.7055,1.64704,8.2,0.00804,-0.03944
8.75,1.69943,1.65627,8.35,0.06945,0.02179
8.9,1.66794,1.64082,8.5,0.12242,0.0881
9.05,1.62607,1.60048,8.65,0.15182,0.13272
9.2,1.58009,1.55627,8.8,0.15443,0.14251
9.35,1.54401,1.54185,8.95,0.13053,0.12713
9.5,1.51875,1.55251,9.1,0.09255,0.10105
9.65,1.50653,1.56648,9.25,0.06198,0.07314
9.8,1.50808,1.58936,9.4,0.04459,0.05508
9.95,1.52594,1.63063,9.55,0.04505,0.05611
10.1,1.55067,1.6768,9.7,0.062,0.06901
10.25,1.5738,1.70412,9.85,0.08877,0.08729
10.4,1.57979,1.69971,10,0.1267,0.11808
10.55,1.56943,1.66383,10.15,0.16858,0.15913
10.7,1.52617,1.59649,10.3,0.20012,0.1923
10.85,1.46751,1.50768,10.45,0.21077,0.20186
11,1.39867,1.4245,10.6,0.18711,0.17915
11.15,1.33266,1.35983,10.75,0.13257,0.12607
11.3,1.28321,1.31168,10.9,0.05476,0.05807
11.45,1.2594,1.28592,11.05,-0.0287,-0.01105
11.6,1.24559,1.27999,11.2,-0.10391,-0.07581
11.75,1.25158,1.28212,11.35,-0.15834,-0.12844
11.9,1.2713,1.29263,11.5,-0.19358,-0.16335
12.05,1.30294,1.3132,11.65,-0.21525,-0.18569
12.2,1.3433,1.34502,11.8,-0.22541,-0.20147
12.35,1.38988,1.39586,11.95,-0.22448,-0.20872
12.5,1.43873,1.461,12.1,-0.21471,-0.20286
12.65,1.48801,1.52606,12.25,-0.19183,-0.18238
12.8,1.53348,1.58645,12.4,-0.15353,-0.14894
12.95,1.56876,1.63746,12.55,-0.09885,-0.10449
13.1,1.59142,1.66969,12.7,-0.03317,-0.05004
13.25,1.60129,1.67947,12.85,0.03663,0.00977
13.4,1.59658,1.6661,13,0.10274,0.066
13.55,1.5751,1.63194,13.15,0.15328,0.11183
13.7,1.54033,1.58799,13.3,0.18213,0.14252
13.85,1.50819,1.54733,13.45,0.18418,0.1526
14,1.48588,1.51605,13.6,0.16647,0.142
14.15,1.46055,1.49299,13.75,0.13574,0.11865
14.3,1.44485,1.47712,13.9,0.09966,0.09082
14.45,1.43286,1.47107,14.05,0.06792,0.0639
14.6,1.42567,1.47374,14.2,0.03991,0.0418
14.75,1.42485,1.47902,14.35,0.01975,0.02519
14.9,1.42744,1.48372,14.5,-8.66E-04,0.01216
15.05,1.43782,1.48857,14.65,-0.01568,0.00173
15.2,1.45068,1.49413,14.8,-0.02381,-0.00613
15.35,1.45899,1.49861,14.95,-0.02724,-0.01173
15.5,1.47853,1.49826,15.1,-0.01981,-0.01582
15.65,1.49074,1.49247,15.25,-0.01177,-0.01921
15.8,1.49497,1.48383,15.4,-0.00248,-0.02115
15.95,1.5025,1.47309,15.55,0.00271,-0.02051
16.1,1.496,1.46113,15.7,0.00417,-0.01917
16.25,1.49344,1.45104,15.85,-1.08E-04,-0.01945
16.4,1.49016,1.44449,16,-0.01056,-0.02102
16.55,1.48643,1.44222,16.15,-0.02825,-0.02434
16.7,1.49806,1.44653,16.3,-0.04801,-0.03163
16.85,1.49927,1.45894,16.45,-0.06715,-0.04191
17,1.51455,1.47816,16.6,-0.07913,-0.05073
17.15,1.52157,1.50083,16.75,-0.08708,-0.05444
17.3,1.52185,1.52308,16.9,-0.08532,-0.05118
17.45,1.52399,1.54214,17.05,-0.0747,-0.04034
17.6,1.52245,1.55645,17.2,-0.05979,-0.02338
17.75,1.53341,1.56469,17.35,-0.04197,-0.00358
17.9,1.53016,1.5657,17.5,-0.01982,0.01551
18.05,1.53296,1.55932,17.65,-9.03E-04,0.03149
18.2,1.51892,1.5468,17.8,0.01411,0.04382
18.35,1.52201,1.5303,17.95,0.02775,0.05227
18.5,1.51494,1.51219,18.1,0.03528,0.0555
18.65,1.50285,1.49487,18.25,0.03783,0.05278
18.8,1.49699,1.4805,18.4,0.03204,0.04529
18.95,1.48461,1.47091,18.55,0.01892,0.03446
19.1,1.4923,1.46685,18.7,0.00276,0.02138
19.25,1.49482,1.46742,18.85,-0.00169,0.00786
19.4,1.50517,1.47101,19,-0.01561,-0.00399
19.55,1.49888,1.47621,19.15,-0.0289,-0.01285
19.7,1.52011,1.48148,19.3,-0.03634,-0.01835
19.85,1.52276,1.4861,19.45,-0.03063,-0.02095
20,1.53289,1.49093,19.6,-0.02676,-0.02166
20.15,1.53015,1.49681,19.75,-0.01657,-0.02132
20.3,1.53192,1.50343,19.9,-0.01124,-0.02024
20.45,1.5464,1.50982,20.05,-0.00299,-0.0183
20.6,1.53707,1.5146,20.2,-0.00527,-0.01529
20.75,1.54677,1.5165,20.35,0.00267,-0.01133
20.9,1.55383,1.51532,20.5,0.01369,-0.00687
21.05,1.56209,1.51174,20.65,0.01722,-0.00251
21.2,1.56923,1.50672,20.8,0.02628,9.69E-04
21.35,1.56219,1.50157,20.95,0.04203,0.00324
21.5,1.55196,1.4976,21.1,0.04665,0.00495
21.65,1.54571,1.49549,21.25,0.04943,0.00668
21.8,1.54281,1.49528,21.4,0.05371,0.00802
21.95,1.52321,1.49664,21.55,0.05276,0.00821
22.1,1.52822,1.49884,21.7,0.05145,0.00718
22.25,1.51505,1.50109,21.85,0.04391,0.00558
22.4,1.50901,1.5029,22,0.04274,0.00411
22.55,1.50176,1.50374,22.15,0.02895,0.0032
22.7,1.51731,1.50286,22.3,0.03635,0.00299
22.85,1.51064,1.50005,22.45,0.03002,0.00333
23,1.52002,1.496,22.6,0.03546,0.00374
23.15,1.51948,1.49189,22.75,0.02265,0.00369
23.3,1.50995,1.4888,22.9,0.00827,0.00297
23.45,1.50142,1.48731,23.05,-0.0102,0.00151
23.6,1.47534,1.48759,23.2,-0.02002,-7.41E-04
23.75,1.46522,1.48959,23.35,-0.03393,-0.00376
23.9,1.45035,1.49314,23.5,-0.03708,-0.00724
,,1.49769,23.65,-0.04313,-0.01058
,,1.50241,23.8,-0.04028,-0.01313
,,1.50659,23.95,-0.0421,-0.01421
,,1.50988,24.1,-0.01952,-0.0134
,,1.51221,24.25,-0.00387,-0.01063
,,1.51361,24.4,0.01033,-0.00627
,,1.51413,24.55,0.01205,-0.00103
,,1.51395,24.7,0.02237,0.00418
,,1.51331,24.85,0.02593,0.0085
,,1.51225,25,0.03232,0.01141
,,1.51048,,,0.01285
,,1.50769,,,0.01307
,,1.50385,,,0.01258
,,1.49913,,,0.01185
,,1.49393,,,0.01107
,,1.48898,,,0.01006
,,1.48514,,,0.00844
,,1.48305,,,0.00589
,,1.48286,,,0.00238
,,1.48423,,,-0.00173
,,1.48655,,,-0.00584
,,1.48928,,,-0.00934
,,1.49197,,,-0.01178
,,1.49438,,,-0.01294
,,1.49646,,,-0.01292
,,1.49837,,,-0.01197
,,1.50027,,,-0.01045
,,1.50223,,,-0.0087
,,1.50427,,,-0.007
,,1.50642,,,-0.00553
,,1.50861,,,-0.00427
,,1.5107,,,-0.00304
,,1.51242,,,-0.00164
,,1.51354,,,1.57E-05
,,1.5139,,,0.00189
,,1.51348,,,0.0039
,,1.51227,,,0.00595
,,1.51029,,,0.00793
,,1.50761,,,0.00976
,,1.50442,,,0.01128
,,,,,0.01233
,,,,,0.0127
,,,,,0.01224

File: Figure2_DRdata.dat
r	D(r)_75C	D(r)_25C
0.01	-0.15902	-0.32492
0.08	-0.34163	-1.79814
0.15	2.50308	-0.66066
0.22	6.96222	1.99763
0.29	9.21598	3.34594
0.36	7.29946	2.28137
0.43	2.97631	0.40434
0.5	-0.56762	-0.271
0.57	-1.92973	0.36701
0.64	-1.94977	0.87972
0.71	-1.78818	0.41584
0.78	-1.6127	-0.28063
0.85	-1.17125	-0.1859
0.92	-0.70478	0.38042
0.99	-0.70086	0.21772
1.06	-1.11453	-0.94057
1.13	-1.36115	-1.9506
1.2	-0.94896	-1.58313
1.27	0.26933	0.43309
1.34	2.28075	3.52884
1.41	4.75445	6.4527
1.48	6.6477	7.42301
1.55	6.62343	5.41373
1.62	4.33303	1.59187
1.69	1.03349	-1.54829
1.76	-1.46505	-2.72966
1.83	-2.37613	-2.68986
1.9	-2.25484	-2.49773
1.97	-2.01621	-2.33377
2.04	-2.07642	-2.15795
2.11	-2.33965	-2.26624
2.18	-2.46544	-2.53467
2.25	-1.97308	-2.00604
2.32	-0.51603	0.03334
2.39	1.59363	2.91807
2.46	3.31124	4.95669
2.53	3.62768	4.8391
2.6	2.4458	2.72253
2.67	0.61743	0.11877
2.74	-0.80797	-1.39551
2.81	-1.30856	-1.51965
2.88	-1.05564	-1.17891
2.95	-0.60145	-1.22138
3.02	-0.41696	-1.60248
3.09	-0.60234	-1.88487
3.16	-0.97044	-1.95501
3.23	-1.3543	-1.97531
3.3	-1.72864	-2.02433
3.37	-2.03386	-2.03825
3.44	-2.07148	-1.89576
3.51	-1.70875	-1.47794
3.58	-1.08002	-0.81799
3.65	-0.45004	-0.15621
3.72	0.04607	0.30443
3.79	0.40461	0.5648
3.86	0.59099	0.62931
3.93	0.55544	0.3926
4	0.38022	-0.09064
4.07	0.23801	-0.48926
4.14	0.18475	-0.5558
4.21	0.12603	-0.38267
4.28	0.00449	-0.16455
4.35	-0.11466	0.03692
4.42	-0.17968	0.1725
4.49	-0.23673	0.13702
4.56	-0.30185	-0.0166
4.63	-0.25608	-0.02499
4.7	0.02068	0.2668
4.77	0.45693	0.69194
4.84	0.82559	0.97067
4.91	0.96411	0.99755
4.98	0.89592	0.8467
5.05	0.74341	0.62126
5.12	0.58789	0.39201
5.19	0.43391	0.21061
5.26	0.26309	0.09508
5.33	0.08192	0.0131
5.4	-0.07797	-0.07927
5.47	-0.18542	-0.18311
5.54	-0.23061	-0.25705
5.61	-0.22733	-0.26562
5.68	-0.19776	-0.20905
5.75	-0.15331	-0.11097
5.82	-0.0903	-0.00324
5.89	-0.00626	0.07677
5.96	0.08206	0.10514
6.03	0.14568	0.09438
6.1	0.17201	0.07212
6.17	0.17726	0.04253
6.24	0.18286	-5.07882E-4
6.31	0.18924	-0.03764
6.38	0.1855	-0.04152
6.45	0.17474	-0.01357
6.52	0.16881	0.03103
6.59	0.16022	0.08366
6.66	0.12164	0.11381
6.73	0.03902	0.07035
6.8	-0.06922	-0.04311
6.87	-0.168	-0.14624
6.94	-0.22625	-0.18159
7.01	-0.22523	-0.18086
7.08	-0.16976	-0.1898
7.15	-0.09639	-0.19369
7.22	-0.04794	-0.16826
7.29	-0.03027	-0.14094
7.36	-0.01271	-0.14557
7.43	0.021	-0.16637
7.5	0.04472	-0.17457
7.57	0.02707	-0.1772
7.64	-0.02309	-0.19048
7.71	-0.06875	-0.20361
7.78	-0.09055	-0.20119
7.85	-0.09948	-0.18831
7.92	-0.1089	-0.1713
7.99	-0.11425	-0.14551
8.06	-0.10444	-0.11762
8.13	-0.0807	-0.10639
8.2	-0.05613	-0.10789
8.27	-0.03957	-0.0951
8.34	-0.02539	-0.06432
8.41	-0.00179	-0.04528
8.48	0.03202	-0.04958
8.55	0.06274	-0.04702
8.62	0.08013	-0.01551
8.69	0.08989	0.0201
8.76	0.10189	0.02805
8.83	0.1116	0.01978
8.9	0.10487	0.02652
8.97	0.07873	0.04611
9.04	0.0458	0.05023
9.11	0.01794	0.03404
9.18	-0.00339	0.02247
9.25	-0.01934	0.02716
9.32	-0.02681	0.02964
9.39	-0.02342	0.01507
9.46	-0.01305	-0.0035
9.53	-0.00303	-0.00774
9.6	0.00161	-0.00144
9.67	0.00201	-8.58606E-6
9.74	0.00599	-0.00594
9.81	0.02007	-0.00995
9.88	0.03696	-0.00791
9.95	0.0389	-0.00354
10.02	0.02017
10.09	-0.00262
10.16	-0.01258
10.23	-0.0151
10.3	-0.02401
10.37	-0.03488
10.44	-0.03249
10.51	-0.02045
10.58	-0.01956
10.65	-0.03378
10.72	-0.04148
10.79	-0.02922
10.86	-0.01335
10.93	-0.01364
11	-0.0229
11.07	-0.02227
11.14	-0.01456
11.21	-0.0192
11.28	-0.03796
11.35	-0.04999
11.42	-0.04526
11.49	-0.04081
11.56	-0.05224
11.63	-0.06702
11.7	-0.06394
11.77	-0.04695
11.84	-0.03809
11.91	-0.04201
11.98	-0.04087
12.05	-0.02565
12.12	-0.00989
12.19	-0.00503
12.26	-0.00336
12.33	0.00307
12.4	0.00623
12.47	1.58809E-6
12.54	-0.00301
12.61	0.00832
12.68	0.0212
12.75	0.01847
12.82	0.00875
12.89	0.01251
12.96	0.02635
13.03	0.0287
13.1	0.01815
13.17	0.01724
13.24	0.03432
13.31	0.0489
13.38	0.04419
13.45	0.0312
13.52	0.028
13.59	0.03364
13.66	0.03696
13.73	0.03643
13.8	0.03634
13.87	0.03378
13.94	0.0245
14.01	0.01499
14.08	0.01532
14.15	0.02315
14.22	0.02661
14.29	0.02212
14.36	0.01895
14.43	0.02409
14.5	0.03116
14.57	0.02989
14.64	0.02141
14.71	0.01619
14.78	0.01773
14.85	0.01797
14.92	0.01258
14.99	0.00975
15.06	0.01448
15.13	0.01479
15.2	-1.77149E-4
15.27	-0.01601
15.34	-0.00933
15.41	0.01367
15.48	0.02071
15.55	5.39583E-4
15.62	-0.01996
15.69	-0.01688
15.76	-0.00229
15.83	7.9902E-4
15.9	-0.00621
15.97	-0.00859
16.04	-0.00698
16.11	-0.01096
16.18	-0.01678
16.25	-0.01496
16.32	-0.01106
16.39	-0.0168
16.46	-0.02694
16.53	-0.02624
16.6	-0.01467
16.67	-0.00679
16.74	-0.00938
16.81	-0.01657
16.88	-0.02331
16.95	-0.02755
17.02	-0.02365
17.09	-0.01006
17.16	4.63271E-4
17.23	-0.00502
17.3	-0.01866
17.37	-0.0214
17.44	-0.01141
17.51	-0.00583
17.58	-0.01375
17.65	-0.02369
17.72	-0.02223
17.79	-0.01213
17.86	-0.00571
17.93	-0.00791
18	-0.01197
18.07	-0.00974
18.14	-0.00284
18.21	-0.00117
18.28	-0.00858
18.35	-0.01432
18.42	-0.00718
18.49	0.00504
18.56	0.00375
18.63	-0.01139
18.7	-0.0184
18.77	-0.00478
18.84	0.01252
18.91	0.01117
18.98	-0.00519
19.05	-0.01441
19.12	-0.00712
19.19	0.00478
19.26	0.00802
19.33	0.00355
19.4	8.46374E-4
19.47	0.00463
19.54	0.01019
19.61	0.00987
19.68	0.00328
19.75	-0.00102
19.82	0.00304
19.89	0.00949
19.96	0.0087
19.99	0.00607

File: Figure4_OOpartial.csv
r,O1-O1_75C,O1-O1_25C,r,O1-O1_MD
0,1,0,1,1
0.03,1,0,1.1,1
0.09,1,0,1.2,1
0.15,1,0,1.3,1
0.21,1,0,1.4,1
0.27,1,0,1.5,1
0.33,1,0,1.6,1
0.39,1,0,1.7,1
0.45,1,0,1.8,1
0.51,1,0,1.9,1
0.57,1,0,2,1
0.63,1,0,2.1,1
0.69,1,0,2.2,1
0.75,1,0,2.3,1
0.81,1,0,2.4,1
0.87,1,0,2.5,1.03491
0.93,1,0,2.6,1.17409
0.99,1,0,2.7,1.5692
1.05,1,0,2.8,2.17587
1.11,1,0,2.9,2.51027
1.17,1,0,3,2.55258
1.23,1,0,3.1,2.43476
1.29,1,0,3.2,2.32922
1.35,1,0,3.3,2.19299
1.41,1,0,3.4,2.06609
1.47,1,0,3.5,1.97141
1.53,1,0,3.6,1.87197
1.59,1,0,3.7,1.79672
1.65,1,0,3.8,1.73895
1.71,1,0,3.9,1.69039
1.77,1,0,4,1.65779
1.83,1,0,4.1,1.62869
1.89,1,0,4.2,1.59969
1.95,1,0,4.3,1.57377
2.01,1,0,4.4,1.55032
2.07,1,0,4.5,1.53271
2.13,1,0,4.6,1.5151
2.19,1,0,4.7,1.5016
2.25,1,0,4.8,1.4913
2.31,1,0,4.9,1.481
2.37,1.00842,0,5,1.47381
2.43,1.02545,5.65E-05,5.1,1.47381
2.49,1.03546,8.34E-04,5.2,1.47381
2.55,1.01338,0.02145,5.3,1.47381
2.61,1.02598,0.09367,5.4,1.48156
2.67,1.05808,0.17992,5.5,1.49089
2.73,1.14968,0.40113,5.6,1.50022
2.79,1.38096,0.63073,5.7,1.51511
2.85,1.65109,0.73095,5.8,1.53419
2.91,1.86983,0.782,5.9,1.5538
2.97,1.97562,0.82617,6,1.58435
3.03,1.8855,0.77709,6.1,1.6143
3.09,1.84154,0.71071,6.2,1.64377
3.15,1.77528,0.70989,6.3,1.6726
3.21,1.73977,0.83762,6.4,1.72135
3.27,1.70405,0.96327,6.5,1.7757
3.33,1.6168,0.93217,6.6,1.81702
3.39,1.56344,0.84279,6.7,1.84444
3.45,1.54864,0.77167,6.8,1.8776
3.51,1.52506,0.71157,6.9,1.91273
3.57,1.4466,0.6659,7,1.95577
3.63,1.39367,0.63621,7.1,2.01581
3.69,1.39446,0.62421,7.2,2.04865
3.75,1.42804,0.59759,7.3,2.07117
3.81,1.48455,0.54493,7.4,2.07443
3.87,1.52993,0.48196,7.5,2.06348
3.93,1.54971,0.45352,7.6,2.03559
3.99,1.574,0.43452,7.7,2.01308
4.05,1.60944,0.41495,7.8,1.99098
4.11,1.68532,0.42371,7.9,1.96973
4.17,1.75565,0.44012,8,1.95156
4.23,1.74968,0.45479,8.1,1.93977
4.29,1.7146,0.47735,8.2,1.92797
4.35,1.63244,0.50469,8.3,1.92341
4.41,1.51987,0.51522,8.4,1.92064
4.47,1.46567,0.50848,8.5,1.91787
4.53,1.39707,0.52283,8.6,1.92052
4.59,1.34526,0.55822,8.7,1.92689
4.65,1.33831,0.5876,8.8,1.93326
4.71,1.33624,0.6033,8.9,1.93804
4.77,1.35168,0.62351,9,1.94244
4.83,1.37175,0.61696,9.1,1.94661
4.89,1.37835,0.58499,9.2,1.94777
4.95,1.41035,0.56138,9.3,1.94893
5.01,1.44834,0.573,9.4,1.95173
5.07,1.51537,0.56954,9.5,1.95775
5.13001,1.57445,0.56526,9.6,1.96378
5.19001,1.63031,0.57289,9.7,1.96546
5.25001,1.65925,0.58391,9.8,1.96614
5.31001,1.6481,0.57607,9.9,1.96682
5.37001,1.54946,0.56686,10,1.96782
5.43001,1.46881,0.57929,,
5.49001,1.4072,0.60481,,
5.55001,1.40726,0.63527,,
5.61001,1.44856,0.68614,,
5.67001,1.48802,0.70926,,
5.73001,1.52171,0.71031,,
5.79001,1.56922,0.68666,,
5.85001,1.64475,0.65853,,
5.91001,1.72216,0.65557,,
5.97001,1.7769,0.65917,,
6.03001,1.83549,0.68937,,
6.09001,1.87562,0.7521,,
6.15001,1.88927,0.79575,,
6.21001,1.90122,0.81876,,
6.27001,1.91817,0.82501,,
6.33001,1.91454,0.83008,,
6.39001,1.88144,0.79656,,
6.45001,1.87978,0.7679,,
6.51002,1.90049,0.76668,,
6.57002,1.9199,0.80557,,
6.63002,1.9122,0.84336,,
6.69002,1.89562,0.88114,,
6.75002,1.92833,0.89043,,
6.81002,1.93879,0.88224,,
6.87002,1.94145,0.85916,,
6.93002,1.94358,0.88096,,
6.99002,1.96029,0.92132,,
7.05002,2.03503,0.96082,,
7.11002,2.06511,0.98904,,
7.17002,2.02443,1.02191,,
7.23002,1.97035,1.06392,,
7.29002,1.94423,1.09685,,
7.35002,1.94572,1.11803,,
7.41002,1.96301,1.13162,,
7.47002,1.95493,1.13189,,
7.53002,1.9323,1.11577,,
7.59002,1.90542,1.09445,,
7.65002,1.90049,1.08456,,
7.71002,1.90478,1.08566,,
7.77002,1.96243,1.08208,,
7.83002,2.02225,1.07601,,
7.89002,2.0317,1.07106,,
7.95003,1.98189,1.06308,,
8.01002,1.94352,1.02949,,
8.07002,1.92266,0.9969,,
8.13002,1.90415,0.99369,,
8.19002,1.90859,0.99546,,
8.25002,1.91958,0.97062,,
8.31002,1.94193,0.92785,,
8.37002,1.99517,0.88655,,
8.43002,2.05164,0.8743,,
8.49002,2.04764,0.86343,,
8.55002,1.99233,0.84919,,
8.61002,1.94533,0.84886,,
8.67002,1.9458,0.86935,,
8.73002,1.90002,0.88306,,
8.79002,1.87618,0.88173,,
8.85002,1.88822,0.87987,,
8.91002,1.90577,0.8806,,
8.97002,1.90736,0.86652,,
9.03002,1.88629,0.86807,,
9.09001,1.85066,0.8907,,
9.15001,1.8645,0.90991,,
9.21001,1.87655,0.93078,,
9.27001,1.91433,0.94434,,
9.33001,1.95519,0.95969,,
9.39001,1.9477,0.96508,,
9.45001,1.92937,0.95865,,
9.51001,1.90601,0.93524,,
9.57001,1.90578,0.91549,,
9.63001,1.93361,0.90953,,
9.69001,1.96297,0.91805,,
9.75001,2.00981,0.93313,,
9.81001,2.07193,0.93698,,
9.87001,2.13281,0.93215,,
9.93001,2.17938,0.93574,,
9.99001,2.18738,0.94881,,
10.05001,2.17408,0.95214,,
10.11001,2.15023,0.94832,,
10.17,2.13776,0.94372,,
10.23,2.12709,0.94781,,
10.29,2.12317,0.94986,,
10.35,2.1139,0.94837,,
10.41,2.10555,0.95168,,
10.47,2.09155,0.95466,,
10.53,2.08158,0.95007,,
10.59,2.07557,0.94538,,
10.65,2.04021,0.9466,,
10.71,1.99041,0.95943,,
10.77,1.95698,0.95861,,
10.83,1.92219,0.96362,,
10.89,1.89348,0.9811,,
10.95,1.9134,1.01574,,
11.01,1.95308,1.04416,,
11.07,1.99123,1.0525,,
11.13,1.97272,1.05941,,
11.19,1.94181,1.05982,,
11.25,1.94045,1.05587,,
11.30999,1.94929,1.04332,,
11.36999,1.97066,1.02366,,
11.42999,2.00742,1.01632,,
11.48999,2.03617,1.00519,,
11.54999,2.04601,0.99935,,
11.60999,2.06896,1.0004,,
11.66999,2.09776,1.00865,,
11.72999,2.12711,1.01687,,
11.78999,2.15692,1.02622,,
11.84999,2.14105,1.03201,,
11.90999,2.10996,1.03322,,
11.96999,2.11338,1.04066,,
12.02999,2.13413,1.03811,,
12.08999,2.16495,1.03907,,
12.14999,2.14679,1.04818,,
12.20999,2.09567,1.04692,,
12.26999,2.0767,1.05427,,
12.32999,2.077,1.05994,,
12.38999,2.07223,1.06168,,
12.44998,2.04993,1.06117,,
12.50998,2.01112,1.05378,,
12.56998,1.9818,1.04996,,
12.62998,1.98654,1.03381,,
12.68998,2.00429,1.00748,,
12.74998,2.00286,0.99802,,
12.80998,1.99932,0.98785,,
12.86998,1.99086,0.98054,,
12.92998,1.98002,0.97777,,
12.98998,1.97147,0.97426,,
13.04998,1.99436,0.9643,,
13.10998,2.02264,0.96712,,
13.16998,2.01617,0.97986,,
13.22998,2.00412,0.99585,,
13.28998,1.97186,1.01868,,
13.34998,1.91119,1.03525,,
13.40998,1.8809,1.04159,,
13.46998,1.91477,1.04618,,
13.52997,1.96215,1.04874,,
13.58997,1.98675,1.04746,,
13.64997,1.99844,1.03819,,
13.70997,2.01477,1.03176,,
13.76997,2.01276,1.02381,,
13.82997,2.00593,1.01316,,
13.88997,2.00115,1.00459,,
13.94997,2.00087,1.00621,,
14.00997,1.9931,1.01892,,
14.06997,1.99396,1.0292,,
14.12997,1.97022,1.02002,,
14.18997,1.93848,1.00804,,
14.24997,1.92004,0.99495,,
14.30997,1.91644,0.98147,,
14.36997,1.92983,0.97418,,
14.42997,1.94556,0.97517,,
14.48997,1.96734,0.97906,,
14.54997,1.97457,0.99166,,
14.60997,1.97495,1.00203,,
14.66996,1.96666,1.00456,,
14.72996,1.92879,1.00287,,
14.78996,1.87478,,,
14.84996,1.85476,,,
14.87996,1.85941,,,

File: Figure4_OOrunningCoord.csv
r,O1-O1_75C,O1-O1_25C
0,0,0
0.03,0,0
0.09,0,0
0.15,0,0
0.21,0,0
0.27,0,0
0.33,0,0
0.39,0,0
0.45,0,0
0.51,0,0
0.57,0,0
0.63,0,0
0.69,0,0
0.75,0,0
0.81,0,0
0.87,0,0
0.93,0,0
0.99,0,0
1.05,0,0
1.11,0,0
1.17,0,0
1.23,0,0
1.29,0,0
1.35,0,0
1.41,0,0
1.47,0,0
1.53,0,0
1.59,0,0
1.65,0,0
1.71,0,0
1.77,0,0
1.83,0,0
1.89,0,0
1.95,0,0
2.01,0,0
2.07,0,0
2.13,0,0
2.19,0,0
2.25,0,0
2.31,0,0
2.37,6.98E-05,0
2.43,4.74E-04,4.83E-07
2.49,0.00105,8.29E-06
2.55,0.00136,2.60E-04
2.61,0.00175,0.00168
2.67,0.00274,0.00486
2.73,0.00524,0.0121
2.79,0.01214,0.0251
2.85,0.02541,0.04163
2.91,0.04487,0.06029
2.97,0.06866,0.08086
3.03,0.09226,0.10178
3.09,0.11499,0.12161
3.15,0.137,0.1415
3.21,0.15853,0.16516
3.27,0.17989,0.19399
3.33,0.19969,0.22425
3.39,0.21808,0.25275
3.45,0.23647,0.27959
3.51,0.25493,0.30532
3.57,0.27168,0.33014
3.63,0.28666,0.35447
3.69,0.30152,0.37905
3.75,0.31806,0.40354
3.81,0.3371,0.42691
3.87,0.3591,0.4484
3.93,0.38278,0.46872
3.99,0.40823,0.48883
4.05,0.43589,0.5086
4.11,0.46732,0.52899
4.17,0.50357,0.55072
4.23,0.54153,0.57385
4.29,0.57882,0.59879
4.35,0.61406,0.62583
4.41,0.64381,0.65469
4.47,0.67066,0.684
4.53,0.69458,0.71455
4.59,0.71543,0.74779
4.65,0.73588,0.78398
4.71,0.75675,0.82235
4.77,0.77894,0.86306
4.83,0.80306,0.90486
4.89,0.82823,0.94555
4.95,0.85591,0.98548
5.01,0.88669,1.02676
5.07,0.92274,1.069
5.13001,0.96417,1.11199
5.19001,1.01106,1.15619
5.25001,1.06161,1.20244
5.31001,1.11353,1.24968
5.37001,1.16049,1.29674
5.43001,1.20073,1.34537
5.49001,1.23639,1.3973
5.55001,1.27133,1.45298
5.61001,1.31026,1.51397
5.67001,1.35361,1.57925
5.73001,1.401,1.64681
5.79001,1.45347,1.71384
5.85001,1.5137,1.77935
5.91001,1.58291,1.84535
5.97001,1.65957,1.91282
6.03001,1.74343,1.98398
6.09001,1.83396,2.06244
6.15001,1.92829,2.14801
6.21001,2.02601,2.23856
6.27001,2.12695,2.33192
6.33001,2.23042,2.42799
6.39001,2.33273,2.52307
6.45001,2.4354,2.61589
6.51002,2.54211,2.70932
6.57002,2.65355,2.80829
6.63002,2.76682,2.914
6.69002,2.87991,3.02657
6.75002,2.9979,3.14343
6.81002,3.12067,3.26169
6.87002,3.24566,3.3794
6.93002,3.37312,3.50037
6.99002,3.50413,3.62907
7.05002,3.64616,3.7656
7.11002,3.7976,3.9086
7.17002,3.94743,4.05864
7.23002,4.09229,4.21753
7.29002,4.23436,4.38459
7.35002,4.37803,4.55792
7.41002,4.52624,4.7365
7.47002,4.67711,4.91888
7.53002,4.8268,5.1021
7.59002,4.97493,5.28461
7.65002,5.12363,5.46795
7.71002,5.2746,5.65429
7.77002,5.43566,5.84297
7.83002,5.60965,6.03352
7.89002,5.79152,6.22625
7.95003,5.96878,6.42079
8.01002,6.14068,6.61313
8.07002,6.3109,6.80147
8.13002,6.4798,6.99086
8.19002,6.65124,7.18408
8.25002,6.82694,7.37612
8.31002,7.00874,7.56302
8.37002,7.20216,7.74419
8.43002,7.40962,7.924
8.49002,7.62374,8.10398
8.55002,7.83133,8.28409
8.61002,8.0305,8.46567
8.67002,8.23138,8.65315
8.73002,8.42745,8.84693
8.79002,8.61879,9.04406
8.85002,8.81384,9.24309
8.91002,9.01562,9.44503
8.97002,9.22155,9.64734
9.03002,9.42689,9.85136
9.09001,9.62685,10.06241
9.15001,9.82979,10.28136
9.21001,10.03855,10.50829
9.27001,10.25759,10.74161
9.33001,10.49032,10.98165
9.39001,10.72669,11.22723
9.45001,10.96171,11.47516
9.51001,11.19409,11.72104
9.57001,11.42684,11.96425
9.63001,11.66895,12.20792
9.69001,11.92205,12.45633
9.75001,12.18922,12.71179
9.81001,12.47508,12.9718
9.87001,12.78272,13.2342
9.93001,13.10797,13.50016
9.99001,13.44186,13.77268
10.05001,13.77787,14.05046
10.11001,14.11137,14.3305
10.17,14.44376,14.61302
10.23,14.7772,14.89878
10.29,15.11301,15.18908
10.35,15.45046,15.48248
10.41,15.78889,15.77981
10.47,16.1278,16.08183
10.53,16.46665,16.38698
10.59,16.80745,16.69317
10.65,17.1435,17.00327
10.71,17.46791,17.31954
10.77,17.78322,17.64061
10.83,18.09124,17.96628
10.89,18.39184,18.30046
10.95,18.69832,18.6495
11.01,19.0205,19.01312
11.07,19.36062,19.38548
11.13,19.70306,19.7639
11.19,20.03761,20.14702
11.25,20.37268,20.53351
11.30999,20.7142,20.92018
11.36999,21.06567,21.30476
11.42999,21.43339,21.68932
11.48999,21.81702,22.07411
11.54999,22.20965,22.45975
11.60999,22.61353,22.84853
11.66999,23.03284,23.24464
11.72999,23.46674,23.64801
11.78999,23.91754,24.05886
11.84999,24.37279,24.47765
11.90999,24.81904,24.90082
11.96999,25.26864,25.33104
12.02999,25.72889,25.76558
12.08999,26.2066,26.20401
12.14999,26.68751,26.65041
12.20999,27.15352,27.10143
12.26999,27.61167,27.55918
12.32999,28.07309,28.0248
12.38999,28.53798,28.49546
12.44998,29.00019,28.97167
12.50998,29.45091,29.44884
12.56998,29.89079,29.92868
12.62998,30.33311,30.40722
12.68998,30.78802,30.87896
12.74998,31.24828,31.34847
12.80998,31.71114,31.81811
12.86998,32.17548,32.28791
12.92998,32.63922,32.76067
12.98998,33.1027,33.23673
13.04998,33.57665,33.7121
13.10998,34.07004,34.19111
13.16998,34.56951,34.68043
13.22998,35.06698,35.18205
13.28998,35.55626,35.69882
13.34998,36.02258,36.23041
13.40998,36.47128,36.77091
13.46998,36.93415,37.31908
13.52997,37.4253,37.87379
13.58997,37.93749,38.43307
13.64997,38.4613,38.99355
13.70997,38.99771,39.55486
13.76997,39.54046,40.11719
13.82997,40.08472,40.67863
13.88997,40.63025,41.24005
13.94997,41.18072,41.80546
14.00997,41.73233,42.38156
14.06997,42.28809,42.96968
14.12997,42.83943,43.56007
14.18997,43.37722,44.14826
14.24997,43.90622,44.73481
14.30997,44.43566,45.31783
14.36997,44.97567,45.89967
14.42997,45.52899,46.4867
14.48997,46.09873,47.07998
14.54997,46.68072,47.68453
14.60997,47.26799,48.30158
14.66996,47.85756,48.92701
14.72996,48.43345,49.55657
14.78996,48.98175,
14.84996,49.51533,
14.87996,49.7844,