Folder: Data/XRD (part 3)

File: 2025_06_03_CBN_SA_Slurry_3_60_8min.xy
3.00043 43202.0
3.19603 34379.0
3.39163 26682.0
3.58722 20680.0
3.78282 15739.0
3.97841 12010.0
4.17401 10366.0
4.3696 8562.0
4.5652 5419.0
4.7608 5691.0
4.95639 9501.0
5.15199 15232.0
5.34758 6420.0
5.54318 5520.0
5.73878 4931.0
5.93437 2667.0
6.12997 2035.0
6.32556 1719.0
6.52116 1485.0
6.71676 1345.0
6.91235 1207.0
7.10795 1208.0
7.30354 1209.0
7.49914 1168.0
7.69474 1289.0
7.89033 1222.0
8.08593 1032.0
8.28152 1071.0
8.47712 1269.0
8.67271 1393.0
8.86831 1416.0
9.06391 1738.0
9.2595 1535.0
9.4551 1359.0
9.65069 1316.0
9.84629 1550.0
10.0419 2394.0
10.2375 3061.0
10.4331 2083.0
10.6287 2594.0
10.8243 2325.0
11.0199 2892.0
11.2155 3962.0
11.4111 3991.0
11.6067 2659.0
11.8022 2059.0
11.9978 1823.0
12.1934 2260.0
12.389 4727.0
12.5846 4625.0
12.7802 2371.0
12.9758 2193.0
13.1714 1542.0
13.367 1807.0
13.5626 1551.0
13.7582 1689.0
13.9538 1581.0
14.1494 1987.0
14.345 3290.0
14.5406 3218.0
14.7362 1955.0
14.9318 1554.0
15.1274 2152.0
15.323 2519.0
15.5186 2020.0
15.7142 1949.0
15.9098 3050.0
16.1054 5601.0
16.301 4478.0
16.4966 2074.0
16.6921 2015.0
16.8877 2525.0
17.0833 2321.0
17.2789 1796.0
17.4745 2075.0
17.6701 2816.0
17.8657 3549.0
18.0613 4987.0
18.2569 6295.0
18.4525 6271.0
18.6481 3333.0
18.8437 2512.0
19.0393 3466.0
19.2349 3493.0
19.4305 3039.0
19.6261 2922.0
19.8217 3189.0
20.0173 2867.0
20.2129 3152.0
20.4085 5336.0
20.6041 5095.0
20.7997 3041.0
20.9953 2530.0
21.1909 2548.0
21.3864 3406.0
21.582 4105.0
21.7776 4116.0
21.9732 3067.0
22.1688 2716.0
22.3644 3005.0
22.56 2160.0
22.7556 2064.0
22.9512 1966.0
23.1468 1750.0
23.3424 1533.0
23.538 1468.0
23.7336 1640.0
23.9292 1959.0
24.1248 2156.0
24.3204 1610.0
24.516 1805.0
24.7116 2325.0
24.9072 1901.0
25.1028 1794.0
25.2984 1687.0
25.494 1585.0
25.6896 1664.0
25.8852 1448.0
26.0808 1251.0
26.2763 1355.0
26.4719 1203.0
26.6675 1175.0
26.8631 1359.0
27.0587 1418.0
27.2543 1471.0
27.4499 1267.0
27.6455 1289.0
27.8411 1143.0
28.0367 1112.0
28.2323 1124.0
28.4279 1122.0
28.6235 1320.0
28.8191 1238.0
29.0147 1124.0
29.2103 1028.0
29.4059 881.0
29.6015 843.0
29.7971 972.0
29.9927 1028.0
30.1883 907.0
30.3839 862.0
30.5795 1017.0
30.7751 1035.0
30.9706 1111.0
31.1662 837.0
31.3618 787.0
31.5574 806.0
31.753 835.0
31.9486 931.0
32.1442 1044.0
32.3398 901.0
32.5354 896.0
32.731 1029.0
32.9266 805.0
33.1222 779.0
33.3178 706.0
33.5134 714.0
33.709 693.0
33.9046 781.0
34.1002 904.0
34.2958 833.0
34.4914 793.0
34.687 852.0
34.8826 870.0
35.0782 842.0
35.2738 712.0
35.4694 715.0
35.665 696.0
35.8605 749.0
36.0561 681.0
36.2517 707.0
36.4473 827.0
36.6429 797.0
36.8385 732.0
37.0341 777.0
37.2297 906.0
37.4253 1015.0
37.6209 892.0
37.8165 812.0
38.0121 827.0
38.2077 909.0
38.4033 793.0
38.5989 735.0
38.7945 696.0
38.9901 740.0
39.1857 661.0
39.3813 662.0
39.5769 711.0
39.7725 730.0
39.9681 743.0
40.1637 732.0
40.3593 661.0
40.5548 732.0
40.7504 730.0
40.946 797.0
41.1416 654.0
41.3372 728.0
41.5328 726.0
41.7284 794.0
41.924 691.0
42.1196 726.0
42.3152 779.0
42.5108 748.0
42.7064 712.0
42.902 740.0
43.0976 694.0
43.2932 675.0
43.4888 636.0
43.6844 601.0
43.88 624.0
44.0756 621.0
44.2712 653.0
44.4668 632.0
44.6624 604.0
44.858 614.0
45.0536 615.0
45.2492 562.0
45.4447 577.0
45.6403 655.0
45.8359 616.0
46.0315 603.0
46.2271 584.0
46.4227 555.0
46.6183 580.0
46.8139 542.0
47.0095 531.0
47.2051 559.0
47.4007 543.0
47.5963 549.0
47.7919 520.0
47.9875 468.0
48.1831 540.0
48.3787 541.0
48.5743 501.0
48.7699 511.0
48.9655 542.0
49.1611 511.0
49.3567 529.0
49.5523 524.0
49.7479 483.0
49.9435 457.0
50.139 514.0
50.3346 500.0
50.5302 474.0
50.7258 497.0
50.9214 460.0
51.117 463.0
51.3126 499.0
51.5082 491.0
51.7038 472.0
51.8994 440.0
52.095 471.0
52.2906 415.0
52.4862 469.0
52.6818 432.0
52.8774 431.0
53.073 448.0
53.2686 429.0
53.4642 395.0
53.6598 391.0
53.8554 404.0
54.051 408.0
54.2466 415.0
54.4422 419.0
54.6378 401.0
54.8334 420.0
55.0289 368.0
55.2245 360.0
55.4201 399.0
55.6157 420.0
55.8113 419.0
56.0069 401.0
56.2025 413.0
56.3981 320.0
56.5937 366.0
56.7893 355.0
56.9849 336.0
57.1805 326.0
57.3761 364.0
57.5717 338.0
57.7673 301.0
57.9629 332.0
58.1585 343.0
58.3541 345.0
58.5497 354.0
58.7453 354.0
58.9409 340.0
59.1365 297.0
59.3321 311.0
59.5277 361.0
59.7233 312.0
59.9188 301.0
59.9949 308.0

File: 2025_06_03_CBN_Sorbic_Acid_Slurry.xy
10.0054 5465.0
10.2445 7456.0
10.4836 5201.0
10.7226 6532.0
10.9617 6110.0
11.2007 9471.0
11.4398 9952.0
11.6789 5395.0
11.9179 4816.0
12.157 5431.0
12.3961 12197.0
12.6351 9758.0
12.8742 5765.0
13.1132 4103.0
13.3523 4471.0
13.5914 3715.0
13.8304 4007.0
14.0695 4301.0
14.3085 7785.0
14.5476 8099.0
14.7867 4324.0
15.0257 4342.0
15.2648 6119.0
15.5039 5032.0
15.7429 4858.0
15.982 10590.0
16.221 14223.0
16.4601 5629.0
16.6992 5012.0
16.9382 6505.0
17.1773 4829.0
17.4163 4790.0
17.6554 7227.0
17.8945 9484.0
18.1335 13099.0
18.3726 16962.0
18.6117 10180.0
18.8507 6503.0
19.0898 9218.0
19.3288 8067.0
19.5679 7312.0
19.807 7917.0
20.046 6982.0
20.2851 10056.0
20.5241 14964.0
20.7632 8011.0
21.0023 6080.0
21.2413 6853.0
21.4804 9250.0
21.7195 11075.0
21.9585 7732.0
22.1976 7122.0
22.4366 7322.0
22.6757 4976.0
22.9148 5022.0
23.1538 4427.0
23.3929 3693.0
23.6319 3913.0
23.871 4875.0
24.1101 5959.0
24.3491 4112.0
24.5882 4994.0
24.8273 5208.0
25.0663 4698.0
25.3054 4385.0
25.5444 3977.0
25.7835 3908.0
26.0226 3143.0
26.2616 3278.0
26.5007 2865.0
26.7398 3059.0
26.9788 3459.0
27.2179 3852.0
27.4569 3103.0
27.696 3279.0
27.9351 2647.0
28.1741 2766.0
28.4132 2737.0
28.6522 3390.0
28.8913 2784.0
29.1304 2653.0
29.3694 2267.0
29.6085 2106.0
29.8476 2484.0
30.0866 2468.0
30.3257 2143.0
30.5647 2373.0
30.8038 2702.0
31.0429 2527.0
31.2819 2041.0
31.521 1985.0
31.76 2119.0
31.9991 2326.0
32.2382 2370.0
32.4772 2299.0
32.7163 2351.0
32.9554 1998.0
33.1944 1911.0
33.4335 1755.0
33.6725 1869.0
33.9116 2040.0
34.1507 2100.0
34.3897 1932.0
34.6288 2133.0
34.8678 2045.0
35.1069 1974.0
35.346 1772.0
35.585 1725.0
35.8241 1843.0
36.0632 1861.0
36.3022 1875.0
36.5413 1971.0
36.7803 1884.0
37.0194 1813.0
37.2585 2334.0
37.4975 2606.0
37.7366 2008.0
37.9756 2142.0
38.2147 2232.0
38.4538 2001.0
38.6928 1834.0
38.9319 1661.0
39.171 1637.0
39.41 1744.0
39.6491 1757.0
39.8881 1662.0
40.1272 1768.0
40.3663 1866.0
40.6053 1740.0
40.8444 1770.0
41.0835 1841.0
41.3225 1655.0
41.5616 1840.0
41.8006 1784.0
42.0397 1834.0
42.2788 1909.0
42.5178 1883.0
42.7569 1753.0
42.9959 1711.0
43.235 1559.0
43.4741 1569.0
43.7131 1604.0
43.9522 1541.0
44.1913 1596.0
44.4303 1605.0
44.6694 1584.0
44.9084 1547.0
45.1475 1399.0
45.3866 1461.0
45.6256 1534.0
45.8647 1403.0
46.1037 1383.0
46.3428 1428.0
46.5819 1435.0
46.8209 1468.0
47.06 1464.0
47.2991 1426.0
47.5381 1341.0
47.7772 1228.0
48.0162 1280.0
48.2553 1352.0
48.4944 1283.0
48.7334 1280.0
48.9725 1294.0
49.2115 1332.0
49.4506 1167.0
49.6897 1206.0
49.9287 1222.0
50.1678 1233.0
50.4069 1221.0
50.6459 1220.0
50.885 1247.0
51.124 1214.0
51.3631 1125.0
51.6022 1236.0
51.8412 1157.0
52.0803 1130.0
52.3194 1151.0
52.5584 1155.0
52.7975 1126.0
53.0365 1057.0
53.2756 1032.0
53.5147 1012.0
53.7537 1026.0
53.9928 1053.0
54.2318 1020.0
54.4709 1096.0
54.71 1065.0
54.949 989.0
55.1881 949.0
55.4272 945.0
55.6662 1000.0
55.9053 1035.0
56.1443 972.0
56.3834 907.0
56.6225 966.0
56.8615 903.0
57.1006 816.0
57.3396 816.0
57.5787 863.0
57.8178 847.0
58.0568 876.0
58.2959 865.0
58.535 800.0
58.774 758.0
59.0131 786.0
59.2521 810.0
59.4912 784.0
59.7303 804.0
59.9693 761.0
60.2084 843.0
60.4474 690.0
60.6865 706.0
60.9256 790.0
61.1646 765.0
61.4037 714.0
61.6428 743.0
61.8818 689.0
62.1209 761.0
62.3599 677.0
62.599 721.0
62.8381 660.0
63.0771 663.0
63.3162 667.0
63.5552 684.0
63.7943 668.0
64.0334 648.0
64.2724 678.0
64.5115 684.0
64.7506 697.0
64.9896 665.0
65.2287 648.0
65.4677 637.0
65.7068 623.0
65.9459 637.0
66.1849 640.0
66.424 592.0
66.6631 596.0
66.9021 591.0
67.1412 625.0
67.3802 649.0
67.6193 606.0
67.8584 626.0
68.0974 667.0
68.3365 572.0
68.5755 616.0
68.8146 605.0
69.0537 597.0
69.2927 599.0
69.5318 604.0
69.7709 582.0
70.0099 593.0
70.249 623.0
70.488 586.0
70.7271 593.0
70.9662 585.0
71.2052 582.0
71.4443 557.0
71.6833 581.0
71.9224 620.0
72.1615 639.0
72.4005 613.0
72.6396 572.0
72.8787 586.0
73.1177 631.0
73.3568 591.0
73.5958 582.0
73.8349 605.0
74.074 543.0
74.313 606.0
74.5521 593.0
74.7911 553.0
75.0302 601.0
75.2693 567.0
75.5083 539.0
75.7474 632.0
75.9865 604.0
76.2255 612.0
76.4646 615.0
76.7036 599.0
76.9427 597.0
77.1818 605.0
77.4208 617.0
77.6599 587.0
77.899 610.0
78.138 560.0
78.3771 606.0
78.6161 619.0
78.8552 607.0
79.0943 599.0
79.3333 590.0
79.5724 575.0
79.8114 570.0
79.9962 539.0

File: 2025_06_03_CeO2_3_60_8min.xy
3.00043 43202.0
3.19603 34405.0
3.39163 26600.0
3.58722 20268.0
3.78282 15172.0
3.97841 10841.0
4.17401 7656.0
4.3696 5280.0
4.5652 3682.0
4.7608 2473.0
4.95639 2131.0
5.15199 1909.0
5.34758 1877.0
5.54318 1397.0
5.73878 1026.0
5.93437 887.0
6.12997 827.0
6.32556 727.0
6.52116 675.0
6.71676 609.0
6.91235 515.0
7.10795 484.0
7.30354 390.0
7.49914 346.0
7.69474 373.0
7.89033 351.0
8.08593 342.0
8.28152 344.0
8.47712 353.0
8.67271 311.0
8.86831 314.0
9.06391 319.0
9.2595 296.0
9.4551 325.0
9.65069 301.0
9.84629 285.0
10.0419 350.0
10.2375 313.0
10.4331 338.0
10.6287 326.0
10.8243 297.0
11.0199 299.0
11.2155 301.0
11.4111 334.0
11.6067 328.0
11.8022 352.0
11.9978 318.0
12.1934 385.0
12.389 332.0
12.5846 325.0
12.7802 320.0
12.9758 336.0
13.1714 307.0
13.367 314.0
13.5626 305.0
13.7582 318.0
13.9538 304.0
14.1494 287.0
14.345 319.0
14.5406 286.0
14.7362 324.0
14.9318 343.0
15.1274 324.0
15.323 333.0
15.5186 331.0
15.7142 295.0
15.9098 312.0
16.1054 325.0
16.301 344.0
16.4966 339.0
16.6921 345.0
16.8877 333.0
17.0833 312.0
17.2789 332.0
17.4745 318.0
17.6701 293.0
17.8657 271.0
18.0613 305.0
18.2569 307.0
18.4525 291.0
18.6481 302.0
18.8437 302.0
19.0393 326.0
19.2349 339.0
19.4305 315.0
19.6261 248.0
19.8217 279.0
20.0173 276.0
20.2129 296.0
20.4085 300.0
20.6041 341.0
20.7997 283.0
20.9953 299.0
21.1909 286.0
21.3864 312.0
21.582 279.0
21.7776 283.0
21.9732 289.0
22.1688 284.0
22.3644 277.0
22.56 278.0
22.7556 301.0
22.9512 298.0
23.1468 273.0
23.3424 274.0
23.538 280.0
23.7336 285.0
23.9292 315.0
24.1248 247.0
24.3204 265.0
24.516 287.0
24.7116 244.0
24.9072 272.0
25.1028 289.0
25.2984 261.0
25.494 281.0
25.6896 298.0
25.8852 316.0
26.0808 248.0
26.2763 279.0
26.4719 308.0
26.6675 311.0
26.8631 263.0
27.0587 260.0
27.2543 282.0
27.4499 300.0
27.6455 338.0
27.8411 364.0
28.0367 387.0
28.2323 605.0
28.4279 1679.0
28.6235 18520.0
28.8191 1366.0
29.0147 479.0
29.2103 424.0
29.4059 341.0
29.6015 339.0
29.7971 326.0
29.9927 295.0
30.1883 279.0
30.3839 300.0
30.5795 300.0
30.7751 258.0
30.9706 269.0
31.1662 279.0
31.3618 257.0
31.5574 272.0
31.753 264.0
31.9486 267.0
32.1442 234.0
32.3398 268.0
32.5354 303.0
32.731 292.0
32.9266 498.0
33.1222 4432.0
33.3178 892.0
33.5134 352.0
33.709 281.0
33.9046 261.0
34.1002 226.0
34.2958 262.0
34.4914 208.0
34.687 249.0
34.8826 243.0
35.0782 230.0
35.2738 233.0
35.4694 206.0
35.665 217.0
35.8605 233.0
36.0561 206.0
36.2517 206.0
36.4473 208.0
36.6429 222.0
36.8385 192.0
37.0341 215.0
37.2297 211.0
37.4253 189.0
37.6209 206.0
37.8165 216.0
38.0121 212.0
38.2077 216.0
38.4033 233.0
38.5989 225.0
38.7945 186.0
38.9901 220.0
39.1857 201.0
39.3813 236.0
39.5769 217.0
39.7725 189.0
39.9681 196.0
40.1637 190.0
40.3593 164.0
40.5548 217.0
40.7504 215.0
40.946 202.0
41.1416 196.0
41.3372 174.0
41.5328 190.0
41.7284 219.0
41.924 213.0
42.1196 198.0
42.3152 198.0
42.5108 194.0
42.7064 225.0
42.902 177.0
43.0976 187.0
43.2932 183.0
43.4888 181.0
43.6844 199.0
43.88 190.0
44.0756 200.0
44.2712 179.0
44.4668 179.0
44.6624 200.0
44.858 179.0
45.0536 195.0
45.2492 169.0
45.4447 201.0
45.6403 191.0
45.8359 190.0
46.0315 219.0
46.2271 206.0
46.4227 218.0
46.6183 218.0
46.8139 227.0
47.0095 326.0
47.2051 419.0
47.4007 1282.0
47.5963 6564.0
47.7919 1010.0
47.9875 371.0
48.1831 277.0
48.3787 227.0
48.5743 205.0
48.7699 228.0
48.9655 215.0
49.1611 200.0
49.3567 185.0
49.5523 221.0
49.7479 231.0
49.9435 208.0
50.139 216.0
50.3346 209.0
50.5302 207.0
50.7258 186.0
50.9214 195.0
51.117 209.0
51.3126 178.0
51.5082 200.0
51.7038 185.0
51.8994 216.0
52.095 191.0
52.2906 186.0
52.4862 174.0
52.6818 165.0
52.8774 190.0
53.073 187.0
53.2686 200.0
53.4642 165.0
53.6598 179.0
53.8554 190.0
54.051 162.0
54.2466 189.0
54.4422 188.0
54.6378 202.0
54.8334 224.0
55.0289 220.0
55.2245 220.0
55.4201 228.0
55.6157 224.0
55.8113 229.0
56.0069 333.0
56.2025 680.0
56.3981 7779.0
56.5937 2925.0
56.7893 381.0
56.9849 210.0
57.1805 218.0
57.3761 185.0
57.5717 198.0
57.7673 188.0
57.9629 170.0
58.1585 210.0
58.3541 176.0
58.5497 164.0
58.7453 236.0
58.9409 275.0
59.1365 1487.0
59.3321 803.0
59.5277 214.0
59.7233 202.0
59.9188 170.0
59.9949 172.0

File: 2025_06_03_Sorbic_Acid_3_60_8min.xy
3.00043 43466.0
3.19603 34560.0
3.39163 26703.0
3.58722 19931.0
3.78282 15047.0
3.97841 10865.0
4.17401 7910.0
4.3696 5396.0
4.5652 3862.0
4.7608 2657.0
4.95639 2289.0
5.15199 2260.0
5.34758 2250.0
5.54318 1821.0
5.73878 1510.0
5.93437 1335.0
6.12997 1277.0
6.32556 1244.0
6.52116 1142.0
6.71676 1048.0
6.91235 1015.0
7.10795 1024.0
7.30354 984.0
7.49914 997.0
7.69474 986.0
7.89033 969.0
8.08593 945.0
8.28152 950.0
8.47712 973.0
8.67271 1022.0
8.86831 1030.0
9.06391 1128.0
9.2595 1090.0
9.4551 1031.0
9.65069 1073.0
9.84629 1074.0
10.0419 1067.0
10.2375 1178.0
10.4331 1181.0
10.6287 1131.0
10.8243 1345.0
11.0199 2557.0
11.2155 13192.0
11.4111 39371.0
11.6067 17685.0
11.8022 3049.0
11.9978 1600.0
12.1934 1477.0
12.389 1437.0
12.5846 1937.0
12.7802 3676.0
12.9758 6807.0
13.1714 10312.0
13.367 1435.0
13.5626 1247.0
13.7582 1222.0
13.9538 1188.0
14.1494 1093.0
14.345 1130.0
14.5406 1005.0
14.7362 1079.0
14.9318 1000.0
15.1274 1063.0
15.323 1036.0
15.5186 1038.0
15.7142 1133.0
15.9098 1525.0
16.1054 2366.0
16.301 1484.0
16.4966 922.0
16.6921 890.0
16.8877 968.0
17.0833 898.0
17.2789 885.0
17.4745 848.0
17.6701 884.0
17.8657 963.0
18.0613 1548.0
18.2569 1302.0
18.4525 1659.0
18.6481 956.0
18.8437 953.0
19.0393 1032.0
19.2349 1228.0
19.4305 1432.0
19.6261 1128.0
19.8217 930.0
20.0173 1016.0
20.2129 1006.0
20.4085 1119.0
20.6041 1281.0
20.7997 1144.0
20.9953 1109.0
21.1909 1165.0
21.3864 1196.0
21.582 1202.0
21.7776 1415.0
21.9732 1671.0
22.1688 2302.0
22.3644 4109.0
22.56 14762.0
22.7556 67404.0
22.9512 73856.0
23.1468 32226.0
23.3424 6225.0
23.538 9649.0
23.7336 6138.0
23.9292 3043.0
24.1248 2142.0
24.3204 2353.0
24.516 4661.0
24.7116 23534.0
24.9072 13979.0
25.1028 4343.0
25.2984 1877.0
25.494 1706.0
25.6896 1708.0
25.8852 1759.0
26.0808 1767.0
26.2763 1728.0
26.4719 2247.0
26.6675 2240.0
26.8631 1598.0
27.0587 1790.0
27.2543 2320.0
27.4499 3134.0
27.6455 14365.0
27.8411 25091.0
28.0367 6914.0
28.2323 1775.0
28.4279 1564.0
28.6235 1432.0
28.8191 1300.0
29.0147 1330.0
29.2103 1215.0
29.4059 1286.0
29.6015 1538.0
29.7971 1477.0
29.9927 1116.0
30.1883 1070.0
30.3839 1010.0
30.5795 991.0
30.7751 988.0
30.9706 1020.0
31.1662 998.0
31.3618 1541.0
31.5574 2765.0
31.753 2045.0
31.9486 1654.0
32.1442 2473.0
32.3398 3245.0
32.5354 2119.0
32.731 1776.0
32.9266 1236.0
33.1222 1137.0
33.3178 1146.0
33.5134 978.0
33.709 1160.0
33.9046 1365.0
34.1002 1134.0
34.2958 863.0
34.4914 869.0
34.687 913.0
34.8826 899.0
35.0782 833.0
35.2738 896.0
35.4694 1307.0
35.665 1889.0
35.8605 3587.0
36.0561 3708.0
36.2517 1236.0
36.4473 959.0
36.6429 994.0
36.8385 1268.0
37.0341 1162.0
37.2297 1010.0
37.4253 805.0
37.6209 835.0
37.8165 891.0
38.0121 787.0
38.2077 819.0
38.4033 817.0
38.5989 860.0
38.7945 996.0
38.9901 1110.0
39.1857 1336.0
39.3813 2158.0
39.5769 1346.0
39.7725 2135.0
39.9681 3284.0
40.1637 2137.0
40.3593 1020.0
40.5548 893.0
40.7504 1024.0
40.946 1231.0
41.1416 1390.0
41.3372 1572.0
41.5328 1250.0
41.7284 839.0
41.924 768.0
42.1196 777.0
42.3152 727.0
42.5108 845.0
42.7064 974.0
42.902 866.0
43.0976 1265.0
43.2932 946.0
43.4888 720.0
43.6844 723.0
43.88 729.0
44.0756 691.0
44.2712 687.0
44.4668 697.0
44.6624 813.0
44.858 835.0
45.0536 1079.0
45.2492 1216.0
45.4447 1207.0
45.6403 1705.0
45.8359 1658.0
46.0315 2473.0
46.2271 1589.0
46.4227 991.0
46.6183 884.0
46.8139 1723.0
47.0095 1350.0
47.2051 809.0
47.4007 818.0
47.5963 930.0
47.7919 932.0
47.9875 924.0
48.1831 910.0
48.3787 1008.0
48.5743 851.0
48.7699 712.0
48.9655 663.0
49.1611 739.0
49.3567 625.0
49.5523 626.0
49.7479 646.0
49.9435 645.0
50.139 665.0
50.3346 627.0
50.5302 626.0
50.7258 662.0
50.9214 724.0
51.117 669.0
51.3126 680.0
51.5082 757.0
51.7038 781.0
51.8994 667.0
52.095 633.0
52.2906 599.0
52.4862 579.0
52.6818 637.0
52.8774 637.0
53.073 619.0
53.2686 669.0
53.4642 740.0
53.6598 953.0
53.8554 1005.0
54.051 1012.0
54.2466 670.0
54.4422 643.0
54.6378 626.0
54.8334 584.0
55.0289 547.0
55.2245 583.0
55.4201 584.0
55.6157 600.0
55.8113 570.0
56.0069 616.0
56.2025 703.0
56.3981 622.0
56.5937 648.0
56.7893 678.0
56.9849 983.0
57.1805 872.0
57.3761 852.0
57.5717 671.0
57.7673 597.0
57.9629 521.0
58.1585 676.0
58.3541 622.0
58.5497 565.0
58.7453 560.0
58.9409 643.0
59.1365 571.0
59.3321 640.0
59.5277 1177.0
59.7233 1083.0
59.9188 584.0
59.9949 535.0

File: 2025_06_03_Sorbic_Acid_10_80_50s.xy
10.0054 2760.0
10.2445 2902.0
10.4836 2920.0
10.7226 2939.0
10.9617 5034.0
11.2007 25767.0
11.4398 106365.0
11.6789 22371.0
11.9179 4413.0
12.157 3735.0
12.3961 3775.0
12.6351 5363.0
12.8742 18142.0
13.1132 35711.0
13.3523 3986.0
13.5914 3143.0
13.8304 3031.0
14.0695 3078.0
14.3085 2932.0
14.5476 2733.0
14.7867 2610.0
15.0257 2655.0
15.2648 2585.0
15.5039 2554.0
15.7429 2736.0
15.982 4271.0
16.221 6346.0
16.4601 2479.0
16.6992 2384.0
16.9382 2361.0
17.1773 2286.0
17.4163 2280.0
17.6554 2375.0
17.8945 2467.0
18.1335 4344.0
18.3726 4139.0
18.6117 2427.0
18.8507 2461.0
19.0898 2550.0
19.3288 4162.0
19.5679 3664.0
19.807 2568.0
20.046 2502.0
20.2851 2572.0
20.5241 2978.0
20.7632 3041.0
21.0023 2832.0
21.2413 2955.0
21.4804 2966.0
21.7195 3197.0
21.9585 3796.0
22.1976 5919.0
22.4366 13036.0
22.6757 71647.0
22.9148 159214.0
23.1538 68536.0
23.3929 18984.0
23.6319 10054.0
23.871 6963.0
24.1101 5425.0
24.3491 5944.0
24.5882 27280.0
24.8273 61966.0
25.0663 9577.0
25.3054 4689.0
25.5444 4368.0
25.7835 4198.0
26.0226 4654.0
26.2616 4119.0
26.5007 6488.0
26.7398 5431.0
26.9788 4065.0
27.2179 5206.0
27.4569 9361.0
27.696 33439.0
27.9351 45108.0
28.1741 5132.0
28.4132 3574.0
28.6522 3372.0
28.8913 3185.0
29.1304 3018.0
29.3694 3081.0
29.6085 3520.0
29.8476 3072.0
30.0866 2759.0
30.3257 2726.0
30.5647 2656.0
30.8038 2575.0
31.0429 2413.0
31.2819 2806.0
31.521 5152.0
31.76 5736.0
31.9991 4846.0
32.2382 7684.0
32.4772 9066.0
32.7163 7591.0
32.9554 3468.0
33.1944 3367.0
33.4335 3828.0
33.6725 2697.0
33.9116 2999.0
34.1507 3278.0
34.3897 2268.0
34.6288 2256.0
34.8678 2197.0
35.1069 2261.0
35.346 2380.0
35.585 3654.0
35.8241 7387.0
36.0632 5812.0
36.3022 2981.0
36.5413 2541.0
36.7803 3115.0
37.0194 2985.0
37.2585 2201.0
37.4975 2187.0
37.7366 2180.0
37.9756 2121.0
38.2147 2234.0
38.4538 2049.0
38.6928 2202.0
38.9319 2690.0
39.171 3632.0
39.41 5932.0
39.6491 3193.0
39.8881 8033.0
40.1272 6599.0
40.3663 2841.0
40.6053 2502.0
40.8444 5370.0
41.0835 3534.0
41.3225 3721.0
41.5616 2999.0
41.8006 2033.0
42.0397 2065.0
42.2788 2025.0
42.5178 2060.0
42.7569 3530.0
42.9959 4169.0
43.235 2560.0
43.4741 1893.0
43.7131 1953.0
43.9522 1850.0
44.1913 1841.0
44.4303 1875.0
44.6694 1994.0
44.9084 2121.0
45.1475 2827.0
45.3866 2736.0
45.6256 3403.0
45.8647 5701.0
46.1037 6169.0
46.3428 3232.0
46.5819 2407.0
46.8209 3570.0
47.06 3277.0
47.2991 2140.0
47.5381 3588.0
47.7772 3240.0
48.0162 2519.0
48.2553 2291.0
48.4944 1992.0
48.7334 1824.0
48.9725 1892.0
49.2115 1883.0
49.4506 1886.0
49.6897 1877.0
49.9287 1959.0
50.1678 1794.0
50.4069 1688.0
50.6459 1778.0
50.885 1941.0
51.124 1938.0
51.3631 2284.0
51.6022 2015.0
51.8412 2257.0
52.0803 1626.0
52.3194 1611.0
52.5584 1546.0
52.7975 1689.0
53.0365 1845.0
53.2756 1741.0
53.5147 1869.0
53.7537 2624.0
53.9928 2934.0
54.2318 1933.0
54.4709 1584.0
54.71 1658.0
54.949 1534.0
55.1881 1555.0
55.4272 1522.0
55.6662 1465.0
55.9053 1788.0
56.1443 1739.0
56.3834 1637.0
56.6225 1653.0
56.8615 1749.0
57.1006 1934.0
57.3396 2034.0
57.5787 1747.0
57.8178 1486.0
58.0568 1584.0
58.2959 1511.0
58.535 1579.0
58.774 1497.0
59.0131 1445.0
59.2521 1401.0
59.4912 2121.0
59.7303 2157.0
59.9693 1446.0
60.2084 1369.0
60.4474 1538.0
60.6865 1898.0
60.9256 1827.0
61.1646 1580.0
61.4037 1450.0
61.6428 1366.0
61.8818 1202.0
62.1209 1152.0
62.3599 1284.0
62.599 1362.0
62.8381 1340.0
63.0771 1356.0
63.3162 1283.0
63.5552 1310.0
63.7943 1227.0
64.0334 1185.0
64.2724 1110.0
64.5115 1223.0
64.7506 1161.0
64.9896 1168.0
65.2287 1161.0
65.4677 1220.0
65.7068 1299.0
65.9459 1238.0
66.1849 1188.0
66.424 1106.0
66.6631 1138.0
66.9021 1188.0
67.1412 1167.0
67.3802 1147.0
67.6193 1145.0
67.8584 994.0
68.0974 1053.0
68.3365 1126.0
68.5755 1062.0
68.8146 1026.0
69.0537 1117.0
69.2927 1094.0
69.5318 1032.0
69.7709 1052.0
70.0099 1002.0
70.249 975.0
70.488 1028.0
70.7271 1037.0
70.9662 976.0
71.2052 1036.0
71.4443 1168.0
71.6833 1018.0
71.9224 993.0
72.1615 1003.0
72.4005 953.0
72.6396 929.0
72.8787 961.0
73.1177 998.0
73.3568 1046.0
73.5958 1040.0
73.8349 974.0
74.074 995.0
74.313 897.0
74.5521 967.0
74.7911 1041.0
75.0302 907.0
75.2693 955.0
75.5083 964.0
75.7474 996.0
75.9865 957.0
76.2255 932.0
76.4646 942.0
76.7036 979.0
76.9427 990.0
77.1818 1016.0
77.4208 988.0
77.6599 960.0
77.899 920.0
78.138 1173.0
78.3771 1062.0
78.6161 1244.0
78.8552 1204.0
79.0943 1047.0
79.3333 1018.0
79.5724 916.0
79.8114 953.0
79.9962 1052.0

File: 2025_06_03_THC_Sorbic_Acid_MC15.xy
10.0054 3616.0
10.2445 3735.0
10.4836 3676.0
10.7226 3972.0
10.9617 5225.0
11.2007 16957.0
11.4398 8572.0
11.6789 4330.0
11.9179 4224.0
12.157 4418.0
12.3961 4994.0
12.6351 8632.0
12.8742 11341.0
13.1132 4848.0
13.3523 4899.0
13.5914 5017.0
13.8304 5157.0
14.0695 5072.0
14.3085 4958.0
14.5476 5179.0
14.7867 5225.0
15.0257 5347.0
15.2648 5260.0
15.5039 5536.0
15.7429 5844.0
15.982 6241.0
16.221 5810.0
16.4601 6024.0
16.6992 6021.0
16.9382 6239.0
17.1773 6352.0
17.4163 6583.0
17.6554 6831.0
17.8945 7325.0
18.1335 8756.0
18.3726 7308.0
18.6117 7564.0
18.8507 7701.0
19.0898 8695.0
19.3288 8135.0
19.5679 7843.0
19.807 7819.0
20.046 7752.0
20.2851 7613.0
20.5241 7426.0
20.7632 7262.0
21.0023 6943.0
21.2413 6639.0
21.4804 6454.0
21.7195 6355.0
21.9585 6416.0
22.1976 7140.0
22.4366 14460.0
22.6757 35732.0
22.9148 9391.0
23.1538 6798.0
23.3929 5921.0
23.6319 4925.0
23.871 4613.0
24.1101 4476.0
24.3491 4619.0
24.5882 11213.0
24.8273 4293.0
25.0663 3789.0
25.3054 3659.0
25.5444 3587.0
25.7835 3591.0
26.0226 3469.0
26.2616 3683.0
26.5007 3384.0
26.7398 3172.0
26.9788 3124.0
27.2179 3620.0
27.4569 7076.0
27.696 5146.0
27.9351 2877.0
28.1741 2816.0
28.4132 2684.0
28.6522 2567.0
28.8913 2394.0
29.1304 2485.0
29.3694 2564.0
29.6085 2366.0
29.8476 2316.0
30.0866 2230.0
30.3257 2267.0
30.5647 2170.0
30.8038 2192.0
31.0429 2219.0
31.2819 2572.0
31.521 2240.0
31.76 2661.0
31.9991 3737.0
32.2382 2504.0
32.4772 2545.0
32.7163 2188.0
32.9554 1945.0
33.1944 2172.0
33.4335 1911.0
33.6725 2456.0
33.9116 1913.0
34.1507 1944.0
34.3897 1844.0
34.6288 1840.0
34.8678 1809.0
35.1069 1912.0
35.346 2280.0
35.585 2310.0
35.8241 2679.0
36.0632 1986.0
36.3022 1986.0
36.5413 1994.0
36.7803 2609.0
37.0194 1933.0
37.2585 1938.0
37.4975 1846.0
37.7366 1866.0
37.9756 1884.0
38.2147 1988.0
38.4538 1986.0
38.6928 2191.0
38.9319 2226.0
39.171 2611.0
39.41 2539.0
39.6491 2443.0
39.8881 3564.0
40.1272 2056.0
40.3663 1926.0
40.6053 2287.0
40.8444 2056.0
41.0835 2493.0
41.3225 1943.0
41.5616 1902.0
41.8006 1884.0
42.0397 1817.0
42.2788 1864.0
42.5178 1973.0
42.7569 1859.0
42.9959 1997.0
43.235 1815.0
43.4741 1755.0
43.7131 1704.0
43.9522 1752.0
44.1913 1725.0
44.4303 1753.0
44.6694 1687.0
44.9084 1748.0
45.1475 1799.0
45.3866 1875.0
45.6256 2039.0
45.8647 2287.0
46.1037 1803.0
46.3428 1601.0
46.5819 1586.0
46.8209 1779.0
47.06 1562.0
47.2991 1908.0
47.5381 1583.0
47.7772 1542.0
48.0162 1611.0
48.2553 1548.0
48.4944 1395.0
48.7334 1434.0
48.9725 1429.0
49.2115 1367.0
49.4506 1294.0
49.6897 1321.0
49.9287 1247.0
50.1678 1325.0
50.4069 1239.0
50.6459 1373.0
50.885 1287.0
51.124 1340.0
51.3631 1308.0
51.6022 1268.0
51.8412 1203.0
52.0803 1168.0
52.3194 1145.0
52.5584 1112.0
52.7975 1208.0
53.0365 1190.0
53.2756 1222.0
53.5147 1316.0
53.7537 1267.0
53.9928 1098.0
54.2318 1096.0
54.4709 1096.0
54.71 1080.0
54.949 1045.0
55.1881 1069.0
55.4272 1059.0
55.6662 1063.0
55.9053 1131.0
56.1443 1085.0
56.3834 1127.0
56.6225 1116.0
56.8615 1106.0
57.1006 1017.0
57.3396 920.0
57.5787 969.0
57.8178 976.0
58.0568 978.0
58.2959 905.0
58.535 908.0
58.774 898.0
59.0131 921.0
59.2521 941.0
59.4912 1010.0
59.7303 903.0
59.9693 903.0
60.2084 931.0
60.4474 875.0
60.6865 912.0
60.9256 871.0
61.1646 858.0
61.4037 784.0
61.6428 773.0
61.8818 806.0
62.1209 816.0
62.3599 793.0
62.599 793.0
62.8381 835.0
63.0771 809.0
63.3162 740.0
63.5552 752.0
63.7943 778.0
64.0334 746.0
64.2724 773.0
64.5115 782.0
64.7506 761.0
64.9896 758.0
65.2287 691.0
65.4677 760.0
65.7068 720.0
65.9459 764.0
66.1849 743.0
66.424 686.0
66.6631 718.0
66.9021 719.0
67.1412 718.0
67.3802 746.0
67.6193 662.0
67.8584 684.0
68.0974 736.0
68.3365 724.0
68.5755 713.0
68.8146 691.0
69.0537 691.0
69.2927 724.0
69.5318 740.0
69.7709 679.0
70.0099 705.0
70.249 648.0
70.488 723.0
70.7271 659.0
70.9662 713.0
71.2052 699.0
71.4443 738.0
71.6833 684.0
71.9224 641.0
72.1615 653.0
72.4005 651.0
72.6396 653.0
72.8787 674.0
73.1177 642.0
73.3568 654.0
73.5958 686.0
73.8349 692.0
74.074 673.0
74.313 693.0
74.5521 697.0
74.7911 670.0
75.0302 671.0
75.2693 719.0
75.5083 710.0
75.7474 715.0
75.9865 653.0
76.2255 699.0
76.4646 675.0
76.7036 732.0
76.9427 679.0
77.1818 655.0
77.4208 658.0
77.6599 634.0
77.899 675.0
78.138 694.0
78.3771 685.0
78.6161 746.0
78.8552 728.0
79.0943 702.0
79.3333 664.0
79.5724 697.0
79.8114 594.0
79.9962 668.0