Folder: Data/XRD (part 2)

File: 2025_06_03_CBD_10_80_50s.xy
10.0054 16658.0
10.2445 56802.0
10.4836 4277.0
10.7226 3164.0
10.9617 3025.0
11.2007 3139.0
11.4398 4364.0
11.6789 18192.0
11.9179 3886.0
12.157 3680.0
12.3961 8740.0
12.6351 5975.0
12.8742 6454.0
13.1132 25547.0
13.3523 4447.0
13.5914 7654.0
13.8304 12704.0
14.0695 2752.0
14.3085 2542.0
14.5476 2758.0
14.7867 4414.0
15.0257 20299.0
15.2648 9304.0
15.5039 4447.0
15.7429 2813.0
15.982 3611.0
16.221 3051.0
16.4601 4000.0
16.6992 4556.0
16.9382 6677.0
17.1773 13530.0
17.4163 58676.0
17.6554 5019.0
17.8945 11696.0
18.1335 3898.0
18.3726 4821.0
18.6117 22952.0
18.8507 47683.0
19.0898 10414.0
19.3288 6898.0
19.5679 10808.0
19.807 5179.0
20.046 4264.0
20.2851 8577.0
20.5241 32432.0
20.7632 9261.0
21.0023 6192.0
21.2413 4527.0
21.4804 12142.0
21.7195 21439.0
21.9585 24046.0
22.1976 55532.0
22.4366 7570.0
22.6757 21925.0
22.9148 7408.0
23.1538 5049.0
23.3929 4385.0
23.6319 10406.0
23.871 7721.0
24.1101 4064.0
24.3491 8489.0
24.5882 5347.0
24.8273 4230.0
25.0663 5140.0
25.3054 8267.0
25.5444 5806.0
25.7835 3128.0
26.0226 3468.0
26.2616 7327.0
26.5007 6664.0
26.7398 4797.0
26.9788 4773.0
27.2179 4797.0
27.4569 6582.0
27.696 7997.0
27.9351 3616.0
28.1741 3633.0
28.4132 4185.0
28.6522 5079.0
28.8913 6021.0
29.1304 7865.0
29.3694 3597.0
29.6085 2973.0
29.8476 2359.0
30.0866 2409.0
30.3257 3066.0
30.5647 3601.0
30.8038 3173.0
31.0429 3976.0
31.2819 3569.0
31.521 2231.0
31.76 2254.0
31.9991 2670.0
32.2382 2487.0
32.4772 3633.0
32.7163 2842.0
32.9554 2835.0
33.1944 2827.0
33.4335 2520.0
33.6725 2422.0
33.9116 4577.0
34.1507 3283.0
34.3897 3022.0
34.6288 4374.0
34.8678 5820.0
35.1069 3901.0
35.346 3306.0
35.585 2446.0
35.8241 2404.0
36.0632 2159.0
36.3022 2467.0
36.5413 3307.0
36.7803 2836.0
37.0194 2918.0
37.2585 2620.0
37.4975 2415.0
37.7366 2739.0
37.9756 2944.0
38.2147 2790.0
38.4538 2261.0
38.6928 2076.0
38.9319 2336.0
39.171 2307.0
39.41 2457.0
39.6491 2291.0
39.8881 1972.0
40.1272 2593.0
40.3663 2845.0
40.6053 2855.0
40.8444 2100.0
41.0835 1942.0
41.3225 1877.0
41.5616 2204.0
41.8006 2779.0
42.0397 1954.0
42.2788 2261.0
42.5178 2804.0
42.7569 2667.0
42.9959 2043.0
43.235 2642.0
43.4741 2451.0
43.7131 2033.0
43.9522 1820.0
44.1913 1964.0
44.4303 1949.0
44.6694 1864.0
44.9084 2182.0
45.1475 2275.0
45.3866 2194.0
45.6256 1898.0
45.8647 2077.0
46.1037 2092.0
46.3428 2064.0
46.5819 2109.0
46.8209 2248.0
47.06 1923.0
47.2991 1721.0
47.5381 2270.0
47.7772 1842.0
48.0162 1824.0
48.2553 1727.0
48.4944 1636.0
48.7334 1669.0
48.9725 1880.0
49.2115 2077.0
49.4506 1952.0
49.6897 1738.0
49.9287 1809.0
50.1678 1906.0
50.4069 1819.0
50.6459 1722.0
50.885 1542.0
51.124 1516.0
51.3631 1464.0
51.6022 1576.0
51.8412 1813.0
52.0803 1767.0
52.3194 1543.0
52.5584 1435.0
52.7975 1633.0
53.0365 1520.0
53.2756 1370.0
53.5147 1425.0
53.7537 1408.0
53.9928 1405.0
54.2318 1450.0
54.4709 1293.0
54.71 1341.0
54.949 1389.0
55.1881 1344.0
55.4272 1339.0
55.6662 1417.0
55.9053 1347.0
56.1443 1263.0
56.3834 1161.0
56.6225 1194.0
56.8615 1147.0
57.1006 1265.0
57.3396 1138.0
57.5787 1135.0
57.8178 1044.0
58.0568 1157.0
58.2959 1050.0
58.535 1219.0
58.774 1187.0
59.0131 1097.0
59.2521 1119.0
59.4912 1060.0
59.7303 1076.0
59.9693 1008.0
60.2084 972.0
60.4474 975.0
60.6865 986.0
60.9256 1023.0
61.1646 1042.0
61.4037 1013.0
61.6428 976.0
61.8818 955.0
62.1209 1018.0
62.3599 1068.0
62.599 974.0
62.8381 971.0
63.0771 944.0
63.3162 987.0
63.5552 931.0
63.7943 938.0
64.0334 939.0
64.2724 893.0
64.5115 898.0
64.7506 884.0
64.9896 882.0
65.2287 869.0
65.4677 859.0
65.7068 938.0
65.9459 871.0
66.1849 885.0
66.424 901.0
66.6631 855.0
66.9021 946.0
67.1412 882.0
67.3802 853.0
67.6193 843.0
67.8584 848.0
68.0974 887.0
68.3365 888.0
68.5755 901.0
68.8146 898.0
69.0537 829.0
69.2927 870.0
69.5318 800.0
69.7709 861.0
70.0099 906.0
70.249 845.0
70.488 866.0
70.7271 782.0
70.9662 854.0
71.2052 807.0
71.4443 831.0
71.6833 825.0
71.9224 860.0
72.1615 806.0
72.4005 860.0
72.6396 815.0
72.8787 806.0
73.1177 790.0
73.3568 887.0
73.5958 853.0
73.8349 807.0
74.074 827.0
74.313 817.0
74.5521 816.0
74.7911 859.0
75.0302 727.0
75.2693 813.0
75.5083 807.0
75.7474 785.0
75.9865 806.0
76.2255 793.0
76.4646 811.0
76.7036 818.0
76.9427 858.0
77.1818 776.0
77.4208 869.0
77.6599 809.0
77.899 860.0
78.138 798.0
78.3771 792.0
78.6161 814.0
78.8552 759.0
79.0943 809.0
79.3333 783.0
79.5724 794.0
79.8114 844.0
79.9962 829.0

File: 2025_06_03_CBD_SA_MC15_3_60_8min.xy
3.00043 43436.0
3.19603 34526.0
3.39163 26633.0
3.58722 20277.0
3.78282 15053.0
3.97841 11077.0
4.17401 7812.0
4.3696 5556.0
4.5652 3896.0
4.7608 2789.0
4.95639 2536.0
5.15199 2502.0
5.34758 2178.0
5.54318 1740.0
5.73878 1446.0
5.93437 1333.0
6.12997 1161.0
6.32556 1129.0
6.52116 1045.0
6.71676 1038.0
6.91235 932.0
7.10795 899.0
7.30354 830.0
7.49914 806.0
7.69474 825.0
7.89033 796.0
8.08593 868.0
8.28152 1117.0
8.47712 900.0
8.67271 821.0
8.86831 898.0
9.06391 1403.0
9.2595 2952.0
9.4551 4474.0
9.65069 9944.0
9.84629 8136.0
10.0419 3189.0
10.2375 6402.0
10.4331 1279.0
10.6287 1001.0
10.8243 1010.0
11.0199 1343.0
11.2155 3099.0
11.4111 6795.0
11.6067 3025.0
11.8022 4468.0
11.9978 1084.0
12.1934 1310.0
12.389 2713.0
12.5846 3872.0
12.7802 3725.0
12.9758 8602.0
13.1714 5914.0
13.367 1412.0
13.5626 1773.0
13.7582 4255.0
13.9538 1549.0
14.1494 944.0
14.345 915.0
14.5406 991.0
14.7362 1229.0
14.9318 2906.0
15.1274 5381.0
15.323 1549.0
15.5186 1156.0
15.7142 969.0
15.9098 1155.0
16.1054 1691.0
16.301 1028.0
16.4966 1539.0
16.6921 1853.0
16.8877 1600.0
17.0833 2218.0
17.2789 5687.0
17.4745 7405.0
17.6701 1303.0
17.8657 1733.0
18.0613 1740.0
18.2569 2062.0
18.4525 1645.0
18.6481 5040.0
18.8437 8119.0
19.0393 4478.0
19.2349 2255.0
19.4305 2773.0
19.6261 2956.0
19.8217 1743.0
20.0173 1237.0
20.2129 1415.0
20.4085 3692.0
20.6041 5914.0
20.7997 2558.0
20.9953 2671.0
21.1909 1299.0
21.3864 1725.0
21.582 5217.0
21.7776 4876.0
21.9732 5387.0
22.1688 10018.0
22.3644 3444.0
22.56 7625.0
22.7556 19591.0
22.9512 9101.0
23.1468 2888.0
23.3424 4148.0
23.538 3230.0
23.7336 4072.0
23.9292 2394.0
24.1248 1510.0
24.3204 2652.0
24.516 3601.0
24.7116 8758.0
24.9072 3253.0
25.1028 1945.0
25.2984 2645.0
25.494 1806.0
25.6896 1556.0
25.8852 1194.0
26.0808 1290.0
26.2763 1642.0
26.4719 2243.0
26.6675 1990.0
26.8631 1492.0
27.0587 1832.0
27.2543 2063.0
27.4499 2995.0
27.6455 8492.0
27.8411 5872.0
28.0367 1457.0
28.2323 1347.0
28.4279 1467.0
28.6235 1597.0
28.8191 1580.0
29.0147 2457.0
29.2103 2081.0
29.4059 1288.0
29.6015 1263.0
29.7971 952.0
29.9927 877.0
30.1883 934.0
30.3839 1131.0
30.5795 1154.0
30.7751 1136.0
30.9706 1098.0
31.1662 1482.0
31.3618 1290.0
31.5574 1274.0
31.753 995.0
31.9486 1257.0
32.1442 1617.0
32.3398 1279.0
32.5354 1626.0
32.731 1175.0
32.9266 1060.0
33.1222 1027.0
33.3178 1199.0
33.5134 954.0
33.709 992.0
33.9046 1271.0
34.1002 1450.0
34.2958 1020.0
34.4914 1112.0
34.687 1302.0
34.8826 1145.0
35.0782 1093.0
35.2738 1187.0
35.4694 1041.0
35.665 1208.0
35.8605 1351.0
36.0561 1197.0
36.2517 850.0
36.4473 1025.0
36.6429 1111.0
36.8385 1087.0
37.0341 1121.0
37.2297 829.0
37.4253 814.0
37.6209 850.0
37.8165 921.0
38.0121 903.0
38.2077 897.0
38.4033 752.0
38.5989 743.0
38.7945 893.0
38.9901 963.0
39.1857 1110.0
39.3813 1192.0
39.5769 910.0
39.7725 1138.0
39.9681 1582.0
40.1637 1008.0
40.3593 912.0
40.5548 989.0
40.7504 1110.0
40.946 990.0
41.1416 957.0
41.3372 871.0
41.5328 735.0
41.7284 810.0
41.924 888.0
42.1196 733.0
42.3152 734.0
42.5108 976.0
42.7064 1025.0
42.902 817.0
43.0976 945.0
43.2932 952.0
43.4888 777.0
43.6844 690.0
43.88 615.0
44.0756 627.0
44.2712 635.0
44.4668 717.0
44.6624 670.0
44.858 695.0
45.0536 873.0
45.2492 863.0
45.4447 738.0
45.6403 831.0
45.8359 834.0
46.0315 1138.0
46.2271 911.0
46.4227 761.0
46.6183 736.0
46.8139 902.0
47.0095 711.0
47.2051 615.0
47.4007 696.0
47.5963 782.0
47.7919 749.0
47.9875 737.0
48.1831 772.0
48.3787 721.0
48.5743 603.0
48.7699 632.0
48.9655 619.0
49.1611 687.0
49.3567 665.0
49.5523 630.0
49.7479 582.0
49.9435 620.0
50.139 611.0
50.3346 633.0
50.5302 625.0
50.7258 651.0
50.9214 601.0
51.117 624.0
51.3126 566.0
51.5082 603.0
51.7038 636.0
51.8994 582.0
52.095 617.0
52.2906 595.0
52.4862 552.0
52.6818 546.0
52.8774 597.0
53.073 535.0
53.2686 532.0
53.4642 545.0
53.6598 620.0
53.8554 653.0
54.051 572.0
54.2466 547.0
54.4422 517.0
54.6378 483.0
54.8334 453.0
55.0289 478.0
55.2245 466.0
55.4201 495.0
55.6157 525.0
55.8113 499.0
56.0069 479.0
56.2025 493.0
56.3981 483.0
56.5937 450.0
56.7893 503.0
56.9849 482.0
57.1805 451.0
57.3761 496.0
57.5717 491.0
57.7673 429.0
57.9629 451.0
58.1585 417.0
58.3541 412.0
58.5497 429.0
58.7453 444.0
58.9409 464.0
59.1365 443.0
59.3321 398.0
59.5277 478.0
59.7233 425.0
59.9188 370.0
59.9949 445.0

File: 2025_06_03_CBD_SA_Slurry_3_60_8min.xy
3.00043 44515.0
3.19603 35325.0
3.39163 27370.0
3.58722 21001.0
3.78282 15494.0
3.97841 11734.0
4.17401 8130.0
4.3696 5632.0
4.5652 3913.0
4.7608 3094.0
4.95639 2964.0
5.15199 4261.0
5.34758 2839.0
5.54318 3158.0
5.73878 4469.0
5.93437 1641.0
6.12997 1154.0
6.32556 1049.0
6.52116 919.0
6.71676 864.0
6.91235 761.0
7.10795 698.0
7.30354 646.0
7.49914 564.0
7.69474 525.0
7.89033 579.0
8.08593 520.0
8.28152 484.0
8.47712 523.0
8.67271 585.0
8.86831 688.0
9.06391 1074.0
9.2595 1919.0
9.4551 1568.0
9.65069 697.0
9.84629 586.0
10.0419 712.0
10.2375 940.0
10.4331 1419.0
10.6287 1671.0
10.8243 1100.0
11.0199 1745.0
11.2155 2174.0
11.4111 3120.0
11.6067 2749.0
11.8022 1273.0
11.9978 1141.0
12.1934 2020.0
12.389 1203.0
12.5846 1031.0
12.7802 852.0
12.9758 818.0
13.1714 634.0
13.367 647.0
13.5626 689.0
13.7582 614.0
13.9538 595.0
14.1494 612.0
14.345 832.0
14.5406 1376.0
14.7362 1449.0
14.9318 1034.0
15.1274 1856.0
15.323 2095.0
15.5186 3668.0
15.7142 5749.0
15.9098 1745.0
16.1054 1879.0
16.301 2908.0
16.4966 2404.0
16.6921 1827.0
16.8877 1245.0
17.0833 2102.0
17.2789 3112.0
17.4745 1907.0
17.6701 979.0
17.8657 1032.0
18.0613 1175.0
18.2569 2075.0
18.4525 4182.0
18.6481 6044.0
18.8437 3616.0
19.0393 3275.0
19.2349 3587.0
19.4305 2560.0
19.6261 1186.0
19.8217 1471.0
20.0173 1356.0
20.2129 1375.0
20.4085 2109.0
20.6041 4109.0
20.7997 4068.0
20.9953 6850.0
21.1909 6244.0
21.3864 2138.0
21.582 1255.0
21.7776 1089.0
21.9732 1439.0
22.1688 1821.0
22.3644 1231.0
22.56 1174.0
22.7556 1332.0
22.9512 1867.0
23.1468 1382.0
23.3424 1500.0
23.538 1763.0
23.7336 1071.0
23.9292 899.0
24.1248 1490.0
24.3204 2216.0
24.516 1225.0
24.7116 814.0
24.9072 692.0
25.1028 768.0
25.2984 869.0
25.494 898.0
25.6896 1230.0
25.8852 1440.0
26.0808 1622.0
26.2763 1688.0
26.4719 1122.0
26.6675 693.0
26.8631 676.0
27.0587 676.0
27.2543 887.0
27.4499 879.0
27.6455 777.0
27.8411 950.0
28.0367 970.0
28.2323 1109.0
28.4279 1175.0
28.6235 1009.0
28.8191 974.0
29.0147 1056.0
29.2103 850.0
29.4059 634.0
29.6015 627.0
29.7971 728.0
29.9927 706.0
30.1883 758.0
30.3839 674.0
30.5795 648.0
30.7751 808.0
30.9706 741.0
31.1662 865.0
31.3618 1033.0
31.5574 823.0
31.753 888.0
31.9486 1019.0
32.1442 842.0
32.3398 644.0
32.5354 524.0
32.731 585.0
32.9266 792.0
33.1222 909.0
33.3178 820.0
33.5134 905.0
33.709 781.0
33.9046 660.0
34.1002 594.0
34.2958 631.0
34.4914 586.0
34.687 547.0
34.8826 530.0
35.0782 505.0
35.2738 576.0
35.4694 608.0
35.665 527.0
35.8605 483.0
36.0561 500.0
36.2517 545.0
36.4473 583.0
36.6429 670.0
36.8385 660.0
37.0341 711.0
37.2297 574.0
37.4253 585.0
37.6209 598.0
37.8165 547.0
38.0121 628.0
38.2077 676.0
38.4033 631.0
38.5989 551.0
38.7945 632.0
38.9901 622.0
39.1857 561.0
39.3813 495.0
39.5769 529.0
39.7725 502.0
39.9681 482.0
40.1637 517.0
40.3593 477.0
40.5548 480.0
40.7504 452.0
40.946 437.0
41.1416 441.0
41.3372 536.0
41.5328 542.0
41.7284 533.0
41.924 478.0
42.1196 492.0
42.3152 452.0
42.5108 471.0
42.7064 446.0
42.902 425.0
43.0976 451.0
43.2932 496.0
43.4888 499.0
43.6844 500.0
43.88 447.0
44.0756 479.0
44.2712 538.0
44.4668 475.0
44.6624 440.0
44.858 370.0
45.0536 387.0
45.2492 406.0
45.4447 426.0
45.6403 402.0
45.8359 394.0
46.0315 396.0
46.2271 387.0
46.4227 432.0
46.6183 399.0
46.8139 378.0
47.0095 446.0
47.2051 415.0
47.4007 385.0
47.5963 410.0
47.7919 375.0
47.9875 416.0
48.1831 366.0
48.3787 386.0
48.5743 390.0
48.7699 395.0
48.9655 390.0
49.1611 412.0
49.3567 373.0
49.5523 363.0
49.7479 368.0
49.9435 386.0
50.139 411.0
50.3346 375.0
50.5302 393.0
50.7258 334.0
50.9214 374.0
51.117 353.0
51.3126 305.0
51.5082 317.0
51.7038 368.0
51.8994 334.0
52.095 321.0
52.2906 382.0
52.4862 342.0
52.6818 314.0
52.8774 340.0
53.073 336.0
53.2686 303.0
53.4642 350.0
53.6598 314.0
53.8554 309.0
54.051 337.0
54.2466 322.0
54.4422 341.0
54.6378 311.0
54.8334 282.0
55.0289 276.0
55.2245 280.0
55.4201 283.0
55.6157 341.0
55.8113 342.0
56.0069 327.0
56.2025 308.0
56.3981 303.0
56.5937 280.0
56.7893 305.0
56.9849 262.0
57.1805 286.0
57.3761 273.0
57.5717 248.0
57.7673 281.0
57.9629 243.0
58.1585 249.0
58.3541 248.0
58.5497 263.0
58.7453 297.0
58.9409 269.0
59.1365 270.0
59.3321 217.0
59.5277 265.0
59.7233 263.0
59.9188 243.0
59.9949 262.0

File: 2025_06_03_CBD_Sorbic_Acid_MC15.xy
10.0054 6618.0
10.2445 16729.0
10.4836 2770.0
10.7226 2565.0
10.9617 3117.0
11.2007 7115.0
11.4398 18018.0
11.6789 9921.0
11.9179 4006.0
12.157 3063.0
12.3961 7182.0
12.6351 7439.0
12.8742 15938.0
13.1132 16205.0
13.3523 3938.0
13.5914 5124.0
13.8304 11265.0
14.0695 2616.0
14.3085 2334.0
14.5476 2582.0
14.7867 3568.0
15.0257 12162.0
15.2648 4764.0
15.5039 2923.0
15.7429 2580.0
15.982 3736.0
16.221 3282.0
16.4601 3565.0
16.6992 4636.0
16.9382 4572.0
17.1773 7114.0
17.4163 22358.0
17.6554 3480.0
17.8945 5027.0
18.1335 4700.0
18.3726 4081.0
18.6117 10614.0
18.8507 19948.0
19.0898 8765.0
19.3288 5246.0
19.5679 8487.0
19.807 4454.0
20.046 3401.0
20.2851 4552.0
20.5241 14913.0
20.7632 6160.0
21.0023 6365.0
21.2413 3549.0
21.4804 7379.0
21.7195 16243.0
21.9585 13077.0
22.1976 23898.0
22.4366 8509.0
22.6757 41074.0
22.9148 26763.0
23.1538 6975.0
23.3929 11486.0
23.6319 8722.0
23.871 7677.0
24.1101 3732.0
24.3491 7420.0
24.5882 13990.0
24.8273 17676.0
25.0663 4544.0
25.3054 6785.0
25.5444 4351.0
25.7835 3211.0
26.0226 3225.0
26.2616 3998.0
26.5007 5895.0
26.7398 4423.0
26.9788 4006.0
27.2179 5351.0
27.4569 8540.0
27.696 25066.0
27.9351 4798.0
28.1741 3446.0
28.4132 3772.0
28.6522 4163.0
28.8913 4546.0
29.1304 6701.0
29.3694 3369.0
29.6085 3060.0
29.8476 2242.0
30.0866 2309.0
30.3257 2729.0
30.5647 2847.0
30.8038 2630.0
31.0429 3318.0
31.2819 3527.0
31.521 3240.0
31.76 2615.0
31.9991 3392.0
32.2382 3764.0
32.4772 3969.0
32.7163 2916.0
32.9554 2638.0
33.1944 2841.0
33.4335 2684.0
33.6725 2423.0
33.9116 3404.0
34.1507 2783.0
34.3897 2618.0
34.6288 3092.0
34.8678 2887.0
35.1069 2878.0
35.346 2756.0
35.585 2941.0
35.8241 3338.0
36.0632 2777.0
36.3022 2215.0
36.5413 2876.0
36.7803 2617.0
37.0194 2935.0
37.2585 2091.0
37.4975 2090.0
37.7366 2303.0
37.9756 2223.0
38.2147 2170.0
38.4538 1928.0
38.6928 1989.0
38.9319 2531.0
39.171 2849.0
39.41 2792.0
39.6491 2369.0
39.8881 3822.0
40.1272 2773.0
40.3663 2386.0
40.6053 2558.0
40.8444 2835.0
41.0835 2318.0
41.3225 2186.0
41.5616 1844.0
41.8006 2147.0
42.0397 1797.0
42.2788 1838.0
42.5178 2490.0
42.7569 2335.0
42.9959 2074.0
43.235 2377.0
43.4741 1900.0
43.7131 1743.0
43.9522 1547.0
44.1913 1669.0
44.4303 1701.0
44.6694 1667.0
44.9084 1867.0
45.1475 2250.0
45.3866 1960.0
45.6256 2124.0
45.8647 2197.0
46.1037 2725.0
46.3428 1939.0
46.5819 1886.0
46.8209 2168.0
47.06 1635.0
47.2991 1670.0
47.5381 1901.0
47.7772 1852.0
48.0162 1842.0
48.2553 1834.0
48.4944 1601.0
48.7334 1503.0
48.9725 1645.0
49.2115 1691.0
49.4506 1647.0
49.6897 1409.0
49.9287 1524.0
50.1678 1586.0
50.4069 1506.0
50.6459 1451.0
50.885 1546.0
51.124 1453.0
51.3631 1480.0
51.6022 1627.0
51.8412 1574.0
52.0803 1518.0
52.3194 1366.0
52.5584 1340.0
52.7975 1419.0
53.0365 1443.0
53.2756 1332.0
53.5147 1367.0
53.7537 1685.0
53.9928 1495.0
54.2318 1324.0
54.4709 1234.0
54.71 1212.0
54.949 1289.0
55.1881 1220.0
55.4272 1251.0
55.6662 1278.0
55.9053 1334.0
56.1443 1270.0
56.3834 1228.0
56.6225 1222.0
56.8615 1226.0
57.1006 1265.0
57.3396 1216.0
57.5787 1068.0
57.8178 1053.0
58.0568 1080.0
58.2959 1063.0
58.535 1048.0
58.774 1209.0
59.0131 1088.0
59.2521 1003.0
59.4912 1131.0
59.7303 1042.0
59.9693 994.0
60.2084 1032.0
60.4474 1046.0
60.6865 1075.0
60.9256 984.0
61.1646 1009.0
61.4037 944.0
61.6428 1013.0
61.8818 901.0
62.1209 902.0
62.3599 924.0
62.599 1006.0
62.8381 952.0
63.0771 936.0
63.3162 902.0
63.5552 974.0
63.7943 913.0
64.0334 845.0
64.2724 840.0
64.5115 839.0
64.7506 829.0
64.9896 838.0
65.2287 798.0
65.4677 860.0
65.7068 856.0
65.9459 881.0
66.1849 815.0
66.424 788.0
66.6631 805.0
66.9021 840.0
67.1412 788.0
67.3802 816.0
67.6193 756.0
67.8584 767.0
68.0974 802.0
68.3365 835.0
68.5755 800.0
68.8146 836.0
69.0537 771.0
69.2927 772.0
69.5318 769.0
69.7709 746.0
70.0099 769.0
70.249 740.0
70.488 722.0
70.7271 784.0
70.9662 744.0
71.2052 817.0
71.4443 821.0
71.6833 783.0
71.9224 704.0
72.1615 727.0
72.4005 813.0
72.6396 738.0
72.8787 774.0
73.1177 764.0
73.3568 770.0
73.5958 723.0
73.8349 748.0
74.074 754.0
74.313 721.0
74.5521 746.0
74.7911 759.0
75.0302 755.0
75.2693 728.0
75.5083 746.0
75.7474 756.0
75.9865 765.0
76.2255 741.0
76.4646 715.0
76.7036 767.0
76.9427 739.0
77.1818 747.0
77.4208 750.0
77.6599 709.0
77.899 734.0
78.138 741.0
78.3771 776.0
78.6161 760.0
78.8552 758.0
79.0943 727.0
79.3333 735.0
79.5724 726.0
79.8114 757.0
79.9962 751.0

File: 2025_06_03_CBD_Sorbic_Acid_Slurry.xy
10.0054 1697.0
10.2445 2385.0
10.4836 4074.0
10.7226 2828.0
10.9617 3866.0
11.2007 5478.0
11.4398 7427.0
11.6789 5720.0
11.9179 2326.0
12.157 4831.0
12.3961 3049.0
12.6351 2391.0
12.8742 2165.0
13.1132 1665.0
13.3523 1572.0
13.5914 1741.0
13.8304 1446.0
14.0695 1490.0
14.3085 2051.0
14.5476 3333.0
14.7867 2941.0
15.0257 3339.0
15.2648 5226.0
15.5039 8112.0
15.7429 12109.0
15.982 3458.0
16.221 6724.0
16.4601 5933.0
16.6992 4063.0
16.9382 3369.0
17.1773 6911.0
17.4163 5413.0
17.6554 2496.0
17.8945 2593.0
18.1335 3341.0
18.3726 8155.0
18.6117 14358.0
18.8507 7983.0
19.0898 8653.0
19.3288 7905.0
19.5679 3234.0
19.807 3534.0
20.046 3161.0
20.2851 3791.0
20.5241 7953.0
20.7632 9392.0
21.0023 16133.0
21.2413 10284.0
21.4804 3406.0
21.7195 2579.0
21.9585 3206.0
22.1976 3891.0
22.4366 2774.0
22.6757 2814.0
22.9148 4526.0
23.1538 3325.0
23.3929 3850.0
23.6319 3235.0
23.871 2303.0
24.1101 3550.0
24.3491 4985.0
24.5882 2367.0
24.8273 1716.0
25.0663 1765.0
25.3054 2261.0
25.5444 2422.0
25.7835 3693.0
26.0226 3764.0
26.2616 3928.0
26.5007 2376.0
26.7398 1655.0
26.9788 1579.0
27.2179 2076.0
27.4569 2251.0
27.696 2080.0
27.9351 2311.0
28.1741 2432.0
28.4132 2819.0
28.6522 2141.0
28.8913 2517.0
29.1304 2137.0
29.3694 1651.0
29.6085 1580.0
29.8476 1636.0
30.0866 1833.0
30.3257 1696.0
30.5647 1577.0
30.8038 1874.0
31.0429 1717.0
31.2819 2306.0
31.521 1994.0
31.76 2039.0
31.9991 2258.0
32.2382 1542.0
32.4772 1418.0
32.7163 1367.0
32.9554 1940.0
33.1944 1970.0
33.4335 1929.0
33.6725 1914.0
33.9116 1488.0
34.1507 1340.0
34.3897 1405.0
34.6288 1303.0
34.8678 1163.0
35.1069 1264.0
35.346 1443.0
35.585 1400.0
35.8241 1106.0
36.0632 1165.0
36.3022 1327.0
36.5413 1439.0
36.7803 1521.0
37.0194 1533.0
37.2585 1356.0
37.4975 1349.0
37.7366 1368.0
37.9756 1495.0
38.2147 1601.0
38.4538 1398.0
38.6928 1404.0
38.9319 1556.0
39.171 1304.0
39.41 1254.0
39.6491 1225.0
39.8881 1119.0
40.1272 1255.0
40.3663 1149.0
40.6053 1114.0
40.8444 1061.0
41.0835 1087.0
41.3225 1229.0
41.5616 1251.0
41.8006 1205.0
42.0397 1131.0
42.2788 1063.0
42.5178 1053.0
42.7569 1025.0
42.9959 1076.0
43.235 1074.0
43.4741 1120.0
43.7131 1122.0
43.9522 1067.0
44.1913 1112.0
44.4303 1099.0
44.6694 982.0
44.9084 931.0
45.1475 959.0
45.3866 1051.0
45.6256 869.0
45.8647 869.0
46.1037 975.0
46.3428 1080.0
46.5819 997.0
46.8209 943.0
47.06 1005.0
47.2991 1085.0
47.5381 940.0
47.7772 904.0
48.0162 933.0
48.2553 899.0
48.4944 918.0
48.7334 979.0
48.9725 924.0
49.2115 886.0
49.4506 874.0
49.6897 877.0
49.9287 915.0
50.1678 920.0
50.4069 935.0
50.6459 866.0
50.885 850.0
51.124 783.0
51.3631 815.0
51.6022 813.0
51.8412 765.0
52.0803 828.0
52.3194 751.0
52.5584 753.0
52.7975 813.0
53.0365 802.0
53.2756 794.0
53.5147 790.0
53.7537 814.0
53.9928 761.0
54.2318 767.0
54.4709 739.0
54.71 764.0
54.949 701.0
55.1881 705.0
55.4272 759.0
55.6662 787.0
55.9053 821.0
56.1443 755.0
56.3834 712.0
56.6225 725.0
56.8615 628.0
57.1006 616.0
57.3396 692.0
57.5787 633.0
57.8178 648.0
58.0568 657.0
58.2959 616.0
58.535 621.0
58.774 638.0
59.0131 631.0
59.2521 590.0
59.4912 584.0
59.7303 560.0
59.9693 561.0
60.2084 542.0
60.4474 556.0
60.6865 523.0
60.9256 558.0
61.1646 542.0
61.4037 530.0
61.6428 552.0
61.8818 501.0
62.1209 498.0
62.3599 488.0
62.599 525.0
62.8381 522.0
63.0771 553.0
63.3162 491.0
63.5552 499.0
63.7943 465.0
64.0334 538.0
64.2724 502.0
64.5115 479.0
64.7506 488.0
64.9896 491.0
65.2287 504.0
65.4677 533.0
65.7068 477.0
65.9459 510.0
66.1849 459.0
66.424 458.0
66.6631 454.0
66.9021 496.0
67.1412 472.0
67.3802 443.0
67.6193 420.0
67.8584 485.0
68.0974 471.0
68.3365 496.0
68.5755 456.0
68.8146 447.0
69.0537 421.0
69.2927 480.0
69.5318 453.0
69.7709 444.0
70.0099 464.0
70.249 479.0
70.488 450.0
70.7271 459.0
70.9662 451.0
71.2052 392.0
71.4443 504.0
71.6833 436.0
71.9224 443.0
72.1615 427.0
72.4005 440.0
72.6396 444.0
72.8787 437.0
73.1177 416.0
73.3568 457.0
73.5958 445.0
73.8349 456.0
74.074 423.0
74.313 449.0
74.5521 442.0
74.7911 451.0
75.0302 455.0
75.2693 455.0
75.5083 462.0
75.7474 438.0
75.9865 457.0
76.2255 478.0
76.4646 478.0
76.7036 446.0
76.9427 477.0
77.1818 495.0
77.4208 398.0
77.6599 468.0
77.899 435.0
78.138 412.0
78.3771 454.0
78.6161 441.0
78.8552 480.0
79.0943 440.0
79.3333 413.0
79.5724 462.0
79.8114 451.0
79.9962 398.0

File: 2025_06_03_CBN_3_60_8min.xy
3.00043 43532.0
3.19603 34481.0
3.39163 26560.0
3.58722 20106.0
3.78282 15015.0
3.97841 11177.0
4.17401 7971.0
4.3696 5580.0
4.5652 3931.0
4.7608 2969.0
4.95639 2715.0
5.15199 2859.0
5.34758 3903.0
5.54318 7683.0
5.73878 33226.0
5.93437 94716.0
6.12997 13392.0
6.32556 3895.0
6.52116 2469.0
6.71676 2128.0
6.91235 1813.0
7.10795 1549.0
7.30354 1349.0
7.49914 1252.0
7.69474 1124.0
7.89033 1040.0
8.08593 1001.0
8.28152 889.0
8.47712 781.0
8.67271 777.0
8.86831 751.0
9.06391 815.0
9.2595 867.0
9.4551 1153.0
9.65069 2009.0
9.84629 4775.0
10.0419 2440.0
10.2375 1435.0
10.4331 919.0
10.6287 769.0
10.8243 822.0
11.0199 895.0
11.2155 1789.0
11.4111 2971.0
11.6067 7333.0
11.8022 11201.0
11.9978 8369.0
12.1934 1147.0
12.389 1082.0
12.5846 1658.0
12.7802 2882.0
12.9758 1499.0
13.1714 1498.0
13.367 1387.0
13.5626 871.0
13.7582 1116.0
13.9538 2384.0
14.1494 3307.0
14.345 1904.0
14.5406 6605.0
14.7362 5432.0
14.9318 1376.0
15.1274 1264.0
15.323 1779.0
15.5186 1210.0
15.7142 1458.0
15.9098 1177.0
16.1054 1039.0
16.301 1523.0
16.4966 1751.0
16.6921 1199.0
16.8877 1813.0
17.0833 1500.0
17.2789 1332.0
17.4745 1813.0
17.6701 4977.0
17.8657 8689.0
18.0613 1864.0
18.2569 7049.0
18.4525 9905.0
18.6481 7146.0
18.8437 11347.0
19.0393 2517.0
19.2349 1797.0
19.4305 1486.0
19.6261 1912.0
19.8217 2232.0
20.0173 2107.0
20.2129 2258.0
20.4085 2190.0
20.6041 4035.0
20.7997 3812.0
20.9953 9036.0
21.1909 4854.0
21.3864 1688.0
21.582 2097.0
21.7776 1406.0
21.9732 1304.0
22.1688 1402.0
22.3644 1253.0
22.56 1921.0
22.7556 2010.0
22.9512 2138.0
23.1468 2558.0
23.3424 4259.0
23.538 11533.0
23.7336 17049.0
23.9292 17163.0
24.1248 2282.0
24.3204 1856.0
24.516 1373.0
24.7116 1925.0
24.9072 1695.0
25.1028 1064.0
25.2984 1091.0
25.494 1773.0
25.6896 1652.0
25.8852 1082.0
26.0808 964.0
26.2763 967.0
26.4719 1074.0
26.6675 1006.0
26.8631 1199.0
27.0587 1114.0
27.2543 992.0
27.4499 824.0
27.6455 1083.0
27.8411 2045.0
28.0367 1162.0
28.2323 1032.0
28.4279 950.0
28.6235 907.0
28.8191 830.0
29.0147 1450.0
29.2103 1091.0
29.4059 921.0
29.6015 2092.0
29.7971 2751.0
29.9927 3161.0
30.1883 973.0
30.3839 894.0
30.5795 895.0
30.7751 927.0
30.9706 917.0
31.1662 1068.0
31.3618 1040.0
31.5574 834.0
31.753 905.0
31.9486 803.0
32.1442 726.0
32.3398 753.0
32.5354 713.0
32.731 684.0
32.9266 623.0
33.1222 686.0
33.3178 805.0
33.5134 725.0
33.709 662.0
33.9046 650.0
34.1002 592.0
34.2958 581.0
34.4914 712.0
34.687 834.0
34.8826 791.0
35.0782 717.0
35.2738 737.0
35.4694 668.0
35.665 856.0
35.8605 2217.0
36.0561 2976.0
36.2517 999.0
36.4473 805.0
36.6429 812.0
36.8385 764.0
37.0341 720.0
37.2297 855.0
37.4253 837.0
37.6209 710.0
37.8165 651.0
38.0121 708.0
38.2077 687.0
38.4033 652.0
38.5989 636.0
38.7945 748.0
38.9901 1288.0
39.1857 1120.0
39.3813 640.0
39.5769 671.0
39.7725 706.0
39.9681 713.0
40.1637 648.0
40.3593 696.0
40.5548 715.0
40.7504 803.0
40.946 625.0
41.1416 703.0
41.3372 682.0
41.5328 743.0
41.7284 764.0
41.924 778.0
42.1196 734.0
42.3152 683.0
42.5108 826.0
42.7064 1118.0
42.902 899.0
43.0976 766.0
43.2932 918.0
43.4888 1110.0
43.6844 913.0
43.88 828.0
44.0756 962.0
44.2712 1258.0
44.4668 940.0
44.6624 733.0
44.858 679.0
45.0536 657.0
45.2492 581.0
45.4447 577.0
45.6403 556.0
45.8359 579.0
46.0315 624.0
46.2271 625.0
46.4227 609.0
46.6183 666.0
46.8139 660.0
47.0095 724.0
47.2051 619.0
47.4007 618.0
47.5963 587.0
47.7919 615.0
47.9875 583.0
48.1831 576.0
48.3787 711.0
48.5743 772.0
48.7699 807.0
48.9655 769.0
49.1611 606.0
49.3567 617.0
49.5523 975.0
49.7479 953.0
49.9435 665.0
50.139 593.0
50.3346 623.0
50.5302 644.0
50.7258 525.0
50.9214 589.0
51.117 563.0
51.3126 518.0
51.5082 493.0
51.7038 527.0
51.8994 553.0
52.095 519.0
52.2906 589.0
52.4862 519.0
52.6818 469.0
52.8774 404.0
53.073 479.0
53.2686 518.0
53.4642 468.0
53.6598 481.0
53.8554 472.0
54.051 492.0
54.2466 482.0
54.4422 422.0
54.6378 408.0
54.8334 438.0
55.0289 542.0
55.2245 814.0
55.4201 789.0
55.6157 626.0
55.8113 472.0
56.0069 461.0
56.2025 523.0
56.3981 499.0
56.5937 443.0
56.7893 405.0
56.9849 403.0
57.1805 424.0
57.3761 435.0
57.5717 403.0
57.7673 412.0
57.9629 426.0
58.1585 444.0
58.3541 401.0
58.5497 389.0
58.7453 368.0
58.9409 361.0
59.1365 344.0
59.3321 406.0
59.5277 351.0
59.7233 392.0
59.9188 377.0
59.9949 379.0