Folder: Data/XRD (part 5)

File: 2025_06_12_aFEL_DSC_3_60_22m_pXRD.xy
3.00043 134532.0
3.19603 106948.0
3.39163 82455.0
3.58722 62628.0
3.78282 46563.0
3.97841 33601.0
4.17401 24293.0
4.3696 16651.0
4.5652 11598.0
4.7608 8181.0
4.95639 6791.0
5.15199 6580.0
5.34758 6279.0
5.54318 4937.0
5.73878 3870.0
5.93437 3370.0
6.12997 3104.0
6.32556 2720.0
6.52116 2514.0
6.71676 2303.0
6.91235 2023.0
7.10795 1873.0
7.30354 1807.0
7.49914 1737.0
7.69474 1714.0
7.89033 1641.0
8.08593 1695.0
8.28152 1633.0
8.47712 1686.0
8.67271 1668.0
8.86831 1761.0
9.06391 1760.0
9.2595 1885.0
9.4551 1864.0
9.65069 2042.0
9.84629 2072.0
10.0419 2213.0
10.2375 2329.0
10.4331 2353.0
10.6287 2540.0
10.8243 2519.0
11.0199 2535.0
11.2155 2698.0
11.4111 2638.0
11.6067 2652.0
11.8022 2790.0
11.9978 2814.0
12.1934 2635.0
12.389 2647.0
12.5846 2570.0
12.7802 2476.0
12.9758 2372.0
13.1714 2358.0
13.367 2387.0
13.5626 2254.0
13.7582 2118.0
13.9538 2131.0
14.1494 2127.0
14.345 2100.0
14.5406 2078.0
14.7362 2087.0
14.9318 2066.0
15.1274 2004.0
15.323 2005.0
15.5186 1992.0
15.7142 1932.0
15.9098 1997.0
16.1054 1981.0
16.301 1965.0
16.4966 1948.0
16.6921 1959.0
16.8877 1966.0
17.0833 2024.0
17.2789 2117.0
17.4745 2116.0
17.6701 2019.0
17.8657 2134.0
18.0613 2221.0
18.2569 2259.0
18.4525 2257.0
18.6481 2287.0
18.8437 2368.0
19.0393 2350.0
19.2349 2436.0
19.4305 2518.0
19.6261 2489.0
19.8217 2659.0
20.0173 2682.0
20.2129 2712.0
20.4085 2652.0
20.6041 2729.0
20.7997 2805.0
20.9953 2792.0
21.1909 2941.0
21.3864 2814.0
21.582 2906.0
21.7776 2949.0
21.9732 2956.0
22.1688 3001.0
22.3644 2881.0
22.56 3000.0
22.7556 2883.0
22.9512 2885.0
23.1468 2970.0
23.3424 2906.0
23.538 2919.0
23.7336 2815.0
23.9292 2795.0
24.1248 2922.0
24.3204 2831.0
24.516 2763.0
24.7116 2722.0
24.9072 2617.0
25.1028 2736.0
25.2984 2546.0
25.494 2589.0
25.6896 2524.0
25.8852 2413.0
26.0808 2396.0
26.2763 2364.0
26.4719 2293.0
26.6675 2340.0
26.8631 2206.0
27.0587 2214.0
27.2543 2221.0
27.4499 2052.0
27.6455 1983.0
27.8411 2027.0
28.0367 2002.0
28.2323 1980.0
28.4279 1920.0
28.6235 1906.0
28.8191 1858.0
29.0147 1841.0
29.2103 1828.0
29.4059 1810.0
29.6015 1796.0
29.7971 1704.0
29.9927 1810.0
30.1883 1639.0
30.3839 1692.0
30.5795 1784.0
30.7751 1565.0
30.9706 1612.0
31.1662 1672.0
31.3618 1546.0
31.5574 1557.0
31.753 1619.0
31.9486 1562.0
32.1442 1511.0
32.3398 1498.0
32.5354 1459.0
32.731 1493.0
32.9266 1486.0
33.1222 1445.0
33.3178 1426.0
33.5134 1372.0
33.709 1354.0
33.9046 1447.0
34.1002 1443.0
34.2958 1384.0
34.4914 1339.0
34.687 1293.0
34.8826 1346.0
35.0782 1241.0
35.2738 1360.0
35.4694 1308.0
35.665 1371.0
35.8605 1258.0
36.0561 1245.0
36.2517 1288.0
36.4473 1271.0
36.6429 1266.0
36.8385 1282.0
37.0341 1299.0
37.2297 1253.0
37.4253 1183.0
37.6209 1258.0
37.8165 1229.0
38.0121 1249.0
38.2077 1236.0
38.4033 1235.0
38.5989 1235.0
38.7945 1208.0
38.9901 1208.0
39.1857 1165.0
39.3813 1143.0
39.5769 1151.0
39.7725 1120.0
39.9681 1145.0
40.1637 1184.0
40.3593 1155.0
40.5548 1149.0
40.7504 1185.0
40.946 1103.0
41.1416 1144.0
41.3372 1121.0
41.5328 1127.0
41.7284 1121.0
41.924 1144.0
42.1196 1021.0
42.3152 1134.0
42.5108 1065.0
42.7064 1113.0
42.902 1106.0
43.0976 1055.0
43.2932 1085.0
43.4888 1070.0
43.6844 1024.0
43.88 1064.0
44.0756 1094.0
44.2712 1008.0
44.4668 1001.0
44.6624 1038.0
44.858 1034.0
45.0536 1019.0
45.2492 1038.0
45.4447 1044.0
45.6403 1045.0
45.8359 986.0
46.0315 1025.0
46.2271 982.0
46.4227 1003.0
46.6183 963.0
46.8139 1025.0
47.0095 1047.0
47.2051 1005.0
47.4007 974.0
47.5963 965.0
47.7919 924.0
47.9875 970.0
48.1831 957.0
48.3787 944.0
48.5743 956.0
48.7699 931.0
48.9655 918.0
49.1611 921.0
49.3567 898.0
49.5523 866.0
49.7479 901.0
49.9435 889.0
50.139 879.0
50.3346 903.0
50.5302 917.0
50.7258 850.0
50.9214 895.0
51.117 866.0
51.3126 782.0
51.5082 843.0
51.7038 831.0
51.8994 869.0
52.095 806.0
52.2906 752.0
52.4862 779.0
52.6818 737.0
52.8774 796.0
53.073 777.0
53.2686 739.0
53.4642 728.0
53.6598 748.0
53.8554 792.0
54.051 774.0
54.2466 798.0
54.4422 740.0
54.6378 697.0
54.8334 684.0
55.0289 706.0
55.2245 705.0
55.4201 747.0
55.6157 730.0
55.8113 725.0
56.0069 695.0
56.2025 669.0
56.3981 721.0
56.5937 667.0
56.7893 677.0
56.9849 708.0
57.1805 640.0
57.3761 647.0
57.5717 555.0
57.7673 662.0
57.9629 627.0
58.1585 628.0
58.3541 638.0
58.5497 629.0
58.7453 615.0
58.9409 656.0
59.1365 611.0
59.3321 590.0
59.5277 598.0
59.7233 580.0
59.9188 638.0
59.9949 607.0

File: 2025_06_12_Ag_Behenate_3_60_8m_pXRD.xy
3.00043 43040.0
3.19603 34107.0
3.39163 26433.0
3.58722 19883.0
3.78282 14826.0
3.97841 11051.0
4.17401 7906.0
4.3696 5949.0
4.5652 4784.0
4.7608 2632.0
4.95639 2250.0
5.15199 2155.0
5.34758 2072.0
5.54318 1641.0
5.73878 1536.0
5.93437 2067.0
6.12997 1430.0
6.32556 885.0
6.52116 772.0
6.71676 695.0
6.91235 649.0
7.10795 717.0
7.30354 1048.0
7.49914 1860.0
7.69474 627.0
7.89033 388.0
8.08593 366.0
8.28152 352.0
8.47712 334.0
8.67271 414.0
8.86831 658.0
9.06391 955.0
9.2595 320.0
9.4551 296.0
9.65069 293.0
9.84629 294.0
10.0419 334.0
10.2375 398.0
10.4331 791.0
10.6287 678.0
10.8243 264.0
11.0199 298.0
11.2155 278.0
11.4111 282.0
11.6067 275.0
11.8022 339.0
11.9978 507.0
12.1934 388.0
12.389 276.0
12.5846 269.0
12.7802 293.0
12.9758 270.0
13.1714 298.0
13.367 335.0
13.5626 577.0
13.7582 320.0
13.9538 268.0
14.1494 276.0
14.345 244.0
14.5406 269.0
14.7362 290.0
14.9318 316.0
15.1274 350.0
15.323 259.0
15.5186 221.0
15.7142 270.0
15.9098 242.0
16.1054 248.0
16.301 267.0
16.4966 298.0
16.6921 316.0
16.8877 215.0
17.0833 239.0
17.2789 219.0
17.4745 219.0
17.6701 283.0
17.8657 206.0
18.0613 221.0
18.2569 238.0
18.4525 229.0
18.6481 234.0
18.8437 248.0
19.0393 446.0
19.2349 942.0
19.4305 929.0
19.6261 512.0
19.8217 335.0
20.0173 267.0
20.2129 302.0
20.4085 269.0
20.6041 315.0
20.7997 316.0
20.9953 283.0
21.1909 288.0
21.3864 289.0
21.582 299.0
21.7776 315.0
21.9732 381.0
22.1688 385.0
22.3644 353.0
22.56 422.0
22.7556 542.0
22.9512 784.0
23.1468 685.0
23.3424 361.0
23.538 498.0
23.7336 491.0
23.9292 339.0
24.1248 319.0
24.3204 379.0
24.516 339.0
24.7116 349.0
24.9072 346.0
25.1028 399.0
25.2984 483.0
25.494 778.0
25.6896 775.0
25.8852 478.0
26.0808 390.0
26.2763 422.0
26.4719 432.0
26.6675 541.0
26.8631 497.0
27.0587 507.0
27.2543 553.0
27.4499 585.0
27.6455 626.0
27.8411 532.0
28.0367 481.0
28.2323 470.0
28.4279 431.0
28.6235 458.0
28.8191 449.0
29.0147 406.0
29.2103 355.0
29.4059 363.0
29.6015 376.0
29.7971 366.0
29.9927 428.0
30.1883 401.0
30.3839 362.0
30.5795 352.0
30.7751 351.0
30.9706 323.0
31.1662 385.0
31.3618 389.0
31.5574 339.0
31.753 335.0
31.9486 325.0
32.1442 314.0
32.3398 351.0
32.5354 412.0
32.731 411.0
32.9266 519.0
33.1222 437.0
33.3178 456.0
33.5134 530.0
33.709 649.0
33.9046 485.0
34.1002 405.0
34.2958 302.0
34.4914 356.0
34.687 331.0
34.8826 392.0
35.0782 438.0
35.2738 404.0
35.4694 375.0
35.665 350.0
35.8605 314.0
36.0561 328.0
36.2517 378.0
36.4473 380.0
36.6429 383.0
36.8385 305.0
37.0341 334.0
37.2297 279.0
37.4253 315.0
37.6209 328.0
37.8165 393.0
38.0121 389.0
38.2077 319.0
38.4033 306.0
38.5989 342.0
38.7945 310.0
38.9901 340.0
39.1857 424.0
39.3813 355.0
39.5769 317.0
39.7725 320.0
39.9681 344.0
40.1637 398.0
40.3593 543.0
40.5548 486.0
40.7504 365.0
40.946 302.0
41.1416 318.0
41.3372 333.0
41.5328 319.0
41.7284 350.0
41.924 352.0
42.1196 314.0
42.3152 289.0
42.5108 276.0
42.7064 272.0
42.902 233.0
43.0976 333.0
43.2932 351.0
43.4888 316.0
43.6844 264.0
43.88 299.0
44.0756 278.0
44.2712 320.0
44.4668 295.0
44.6624 297.0
44.858 312.0
45.0536 283.0
45.2492 247.0
45.4447 267.0
45.6403 294.0
45.8359 290.0
46.0315 296.0
46.2271 296.0
46.4227 293.0
46.6183 290.0
46.8139 263.0
47.0095 271.0
47.2051 286.0
47.4007 257.0
47.5963 259.0
47.7919 278.0
47.9875 250.0
48.1831 250.0
48.3787 247.0
48.5743 243.0
48.7699 239.0
48.9655 233.0
49.1611 286.0
49.3567 272.0
49.5523 285.0
49.7479 250.0
49.9435 265.0
50.139 289.0
50.3346 271.0
50.5302 281.0
50.7258 257.0
50.9214 282.0
51.117 263.0
51.3126 279.0
51.5082 300.0
51.7038 309.0
51.8994 259.0
52.095 282.0
52.2906 247.0
52.4862 241.0
52.6818 257.0
52.8774 241.0
53.073 263.0
53.2686 288.0
53.4642 298.0
53.6598 262.0
53.8554 258.0
54.051 248.0
54.2466 216.0
54.4422 297.0
54.6378 210.0
54.8334 223.0
55.0289 268.0
55.2245 218.0
55.4201 235.0
55.6157 237.0
55.8113 244.0
56.0069 259.0
56.2025 224.0
56.3981 237.0
56.5937 262.0
56.7893 277.0
56.9849 231.0
57.1805 217.0
57.3761 214.0
57.5717 192.0
57.7673 212.0
57.9629 187.0
58.1585 242.0
58.3541 202.0
58.5497 211.0
58.7453 214.0
58.9409 212.0
59.1365 226.0
59.3321 218.0
59.5277 187.0
59.7233 222.0
59.9188 230.0
59.9949 200.0

File: 2025_06_12_aNIF_DSC_3_60_22m_pXRD.xy
3.00043 137375.0
3.19603 109003.0
3.39163 84465.0
3.58722 64015.0
3.78282 47723.0
3.97841 35153.0
4.17401 24947.0
4.3696 17658.0
4.5652 12153.0
4.7608 8684.0
4.95639 7196.0
5.15199 7104.0
5.34758 6809.0
5.54318 5724.0
5.73878 4456.0
5.93437 4108.0
6.12997 3859.0
6.32556 3673.0
6.52116 3478.0
6.71676 3324.0
6.91235 3227.0
7.10795 3331.0
7.30354 3671.0
7.49914 3983.0
7.69474 3225.0
7.89033 3319.0
8.08593 3348.0
8.28152 3432.0
8.47712 3700.0
8.67271 3957.0
8.86831 4173.0
9.06391 4664.0
9.2595 4775.0
9.4551 4771.0
9.65069 5218.0
9.84629 5508.0
10.0419 5940.0
10.2375 6530.0
10.4331 7296.0
10.6287 9186.0
10.8243 9882.0
11.0199 8848.0
11.2155 8900.0
11.4111 9158.0
11.6067 9089.0
11.8022 9300.0
11.9978 9315.0
12.1934 9775.0
12.389 9578.0
12.5846 9078.0
12.7802 9074.0
12.9758 8368.0
13.1714 7669.0
13.367 7340.0
13.5626 7144.0
13.7582 6705.0
13.9538 6502.0
14.1494 6206.0
14.345 6018.0
14.5406 5741.0
14.7362 5808.0
14.9318 5648.0
15.1274 5223.0
15.323 5095.0
15.5186 5093.0
15.7142 4977.0
15.9098 4657.0
16.1054 4684.0
16.301 4597.0
16.4966 4843.0
16.6921 5408.0
16.8877 7105.0
17.0833 5536.0
17.2789 5035.0
17.4745 5003.0
17.6701 5303.0
17.8657 5248.0
18.0613 5389.0
18.2569 6031.0
18.4525 6164.0
18.6481 5911.0
18.8437 5887.0
19.0393 6480.0
19.2349 6624.0
19.4305 7220.0
19.6261 7967.0
19.8217 8088.0
20.0173 9284.0
20.2129 8065.0
20.4085 7797.0
20.6041 8179.0
20.7997 8155.0
20.9953 8614.0
21.1909 8721.0
21.3864 9127.0
21.582 9384.0
21.7776 9528.0
21.9732 9270.0
22.1688 9031.0
22.3644 9681.0
22.56 9340.0
22.7556 8966.0
22.9512 8640.0
23.1468 8695.0
23.3424 8397.0
23.538 8302.0
23.7336 8412.0
23.9292 9652.0
24.1248 14571.0
24.3204 12583.0
24.516 7727.0
24.7116 7432.0
24.9072 7152.0
25.1028 6976.0
25.2984 7037.0
25.494 7043.0
25.6896 6957.0
25.8852 6515.0
26.0808 6353.0
26.2763 6914.0
26.4719 6124.0
26.6675 5618.0
26.8631 5377.0
27.0587 5133.0
27.2543 5102.0
27.4499 4854.0
27.6455 4900.0
27.8411 4749.0
28.0367 4690.0
28.2323 4761.0
28.4279 4409.0
28.6235 4448.0
28.8191 4319.0
29.0147 4163.0
29.2103 4224.0
29.4059 4046.0
29.6015 3972.0
29.7971 3974.0
29.9927 3882.0
30.1883 3777.0
30.3839 3604.0
30.5795 3679.0
30.7751 3546.0
30.9706 3506.0
31.1662 3452.0
31.3618 3379.0
31.5574 3377.0
31.753 3366.0
31.9486 3331.0
32.1442 3231.0
32.3398 3218.0
32.5354 3081.0
32.731 3170.0
32.9266 3132.0
33.1222 2984.0
33.3178 3049.0
33.5134 3012.0
33.709 2981.0
33.9046 2954.0
34.1002 2963.0
34.2958 2991.0
34.4914 2988.0
34.687 2844.0
34.8826 2867.0
35.0782 2916.0
35.2738 2795.0
35.4694 2883.0
35.665 2815.0
35.8605 2769.0
36.0561 2615.0
36.2517 2644.0
36.4473 2801.0
36.6429 2741.0
36.8385 2759.0
37.0341 2810.0
37.2297 2661.0
37.4253 2681.0
37.6209 2676.0
37.8165 2592.0
38.0121 2637.0
38.2077 2662.0
38.4033 2554.0
38.5989 2601.0
38.7945 2584.0
38.9901 2692.0
39.1857 2509.0
39.3813 2567.0
39.5769 2472.0
39.7725 2562.0
39.9681 2475.0
40.1637 2581.0
40.3593 2544.0
40.5548 2499.0
40.7504 2513.0
40.946 2463.0
41.1416 2482.0
41.3372 2464.0
41.5328 2385.0
41.7284 2485.0
41.924 2476.0
42.1196 2537.0
42.3152 2389.0
42.5108 2405.0
42.7064 2426.0
42.902 2393.0
43.0976 2377.0
43.2932 2334.0
43.4888 2401.0
43.6844 2193.0
43.88 2336.0
44.0756 2325.0
44.2712 2162.0
44.4668 2308.0
44.6624 2148.0
44.858 2155.0
45.0536 2324.0
45.2492 2213.0
45.4447 2169.0
45.6403 2129.0
45.8359 2118.0
46.0315 2067.0
46.2271 2181.0
46.4227 2150.0
46.6183 2038.0
46.8139 2066.0
47.0095 2185.0
47.2051 2127.0
47.4007 2064.0
47.5963 2107.0
47.7919 1924.0
47.9875 1991.0
48.1831 1879.0
48.3787 1913.0
48.5743 1862.0
48.7699 1861.0
48.9655 1899.0
49.1611 1824.0
49.3567 1731.0
49.5523 1805.0
49.7479 1730.0
49.9435 1733.0
50.139 1677.0
50.3346 1658.0
50.5302 1768.0
50.7258 1723.0
50.9214 1677.0
51.117 1641.0
51.3126 1647.0
51.5082 1637.0
51.7038 1654.0
51.8994 1644.0
52.095 1538.0
52.2906 1472.0
52.4862 1456.0
52.6818 1539.0
52.8774 1533.0
53.073 1514.0
53.2686 1402.0
53.4642 1498.0
53.6598 1409.0
53.8554 1402.0
54.051 1355.0
54.2466 1363.0
54.4422 1394.0
54.6378 1333.0
54.8334 1350.0
55.0289 1336.0
55.2245 1361.0
55.4201 1338.0
55.6157 1286.0
55.8113 1332.0
56.0069 1350.0
56.2025 1348.0
56.3981 1247.0
56.5937 1209.0
56.7893 1193.0
56.9849 1252.0
57.1805 1213.0
57.3761 1195.0
57.5717 1206.0
57.7673 1181.0
57.9629 1147.0
58.1585 1163.0
58.3541 1217.0
58.5497 1180.0
58.7453 1112.0
58.9409 1170.0
59.1365 1147.0
59.3321 1082.0
59.5277 1138.0
59.7233 1119.0
59.9188 1160.0
59.9949 1098.0

File: 2025_06_12_NaCl_3_60_8m_pXRD.xy
3.00043 43180.0
3.19603 34570.0
3.39163 26949.0
3.58722 20558.0
3.78282 15091.0
3.97841 10932.0
4.17401 7897.0
4.3696 5442.0
4.5652 3795.0
4.7608 2499.0
4.95639 2165.0
5.15199 1985.0
5.34758 1976.0
5.54318 1466.0
5.73878 1126.0
5.93437 1017.0
6.12997 894.0
6.32556 770.0
6.52116 735.0
6.71676 736.0
6.91235 712.0
7.10795 716.0
7.30354 754.0
7.49914 756.0
7.69474 777.0
7.89033 814.0
8.08593 833.0
8.28152 894.0
8.47712 860.0
8.67271 1046.0
8.86831 1046.0
9.06391 1009.0
9.2595 1139.0
9.4551 1200.0
9.65069 1250.0
9.84629 1260.0
10.0419 1291.0
10.2375 1325.0
10.4331 1359.0
10.6287 1406.0
10.8243 1441.0
11.0199 1482.0
11.2155 1471.0
11.4111 1477.0
11.6067 1478.0
11.8022 1524.0
11.9978 1482.0
12.1934 1512.0
12.389 1474.0
12.5846 1567.0
12.7802 1533.0
12.9758 1580.0
13.1714 1620.0
13.367 1582.0
13.5626 1511.0
13.7582 1547.0
13.9538 1566.0
14.1494 1512.0
14.345 1432.0
14.5406 1487.0
14.7362 1409.0
14.9318 1378.0
15.1274 1450.0
15.323 1375.0
15.5186 1296.0
15.7142 1316.0
15.9098 1217.0
16.1054 1235.0
16.301 1188.0
16.4966 1130.0
16.6921 1124.0
16.8877 1141.0
17.0833 1053.0
17.2789 1019.0
17.4745 1044.0
17.6701 997.0
17.8657 966.0
18.0613 873.0
18.2569 850.0
18.4525 893.0
18.6481 794.0
18.8437 764.0
19.0393 736.0
19.2349 700.0
19.4305 731.0
19.6261 658.0
19.8217 688.0
20.0173 668.0
20.2129 709.0
20.4085 642.0
20.6041 649.0
20.7997 615.0
20.9953 600.0
21.1909 544.0
21.3864 574.0
21.582 548.0
21.7776 555.0
21.9732 558.0
22.1688 569.0
22.3644 492.0
22.56 514.0
22.7556 423.0
22.9512 429.0
23.1468 429.0
23.3424 477.0
23.538 418.0
23.7336 444.0
23.9292 434.0
24.1248 423.0
24.3204 391.0
24.516 414.0
24.7116 407.0
24.9072 341.0
25.1028 319.0
25.2984 386.0
25.494 440.0
25.6896 387.0
25.8852 388.0
26.0808 349.0
26.2763 389.0
26.4719 338.0
26.6675 354.0
26.8631 351.0
27.0587 358.0
27.2543 442.0
27.4499 396.0
27.6455 395.0
27.8411 374.0
28.0367 387.0
28.2323 391.0
28.4279 531.0
28.6235 605.0
28.8191 406.0
29.0147 361.0
29.2103 364.0
29.4059 388.0
29.6015 388.0
29.7971 400.0
29.9927 394.0
30.1883 355.0
30.3839 400.0
30.5795 796.0
30.7751 1070.0
30.9706 1112.0
31.1662 1741.0
31.3618 3357.0
31.5574 42034.0
31.753 106589.0
31.9486 5065.0
32.1442 1435.0
32.3398 919.0
32.5354 820.0
32.731 739.0
32.9266 655.0
33.1222 654.0
33.3178 578.0
33.5134 552.0
33.709 528.0
33.9046 537.0
34.1002 502.0
34.2958 483.0
34.4914 465.0
34.687 462.0
34.8826 429.0
35.0782 404.0
35.2738 426.0
35.4694 383.0
35.665 372.0
35.8605 374.0
36.0561 341.0
36.2517 341.0
36.4473 338.0
36.6429 286.0
36.8385 347.0
37.0341 298.0
37.2297 304.0
37.4253 308.0
37.6209 293.0
37.8165 279.0
38.0121 286.0
38.2077 249.0
38.4033 245.0
38.5989 243.0
38.7945 243.0
38.9901 219.0
39.1857 217.0
39.3813 264.0
39.5769 213.0
39.7725 206.0
39.9681 226.0
40.1637 233.0
40.3593 182.0
40.5548 196.0
40.7504 225.0
40.946 224.0
41.1416 228.0
41.3372 191.0
41.5328 202.0
41.7284 201.0
41.924 181.0
42.1196 202.0
42.3152 187.0
42.5108 184.0
42.7064 155.0
42.902 178.0
43.0976 197.0
43.2932 167.0
43.4888 172.0
43.6844 217.0
43.88 193.0
44.0756 180.0
44.2712 187.0
44.4668 158.0
44.6624 182.0
44.858 194.0
45.0536 234.0
45.2492 424.0
45.4447 2510.0
45.6403 1119.0
45.8359 192.0
46.0315 176.0
46.2271 158.0
46.4227 168.0
46.6183 175.0
46.8139 151.0
47.0095 156.0
47.2051 172.0
47.4007 145.0
47.5963 141.0
47.7919 148.0
47.9875 162.0
48.1831 122.0
48.3787 160.0
48.5743 114.0
48.7699 104.0
48.9655 134.0
49.1611 121.0
49.3567 108.0
49.5523 125.0
49.7479 143.0
49.9435 123.0
50.139 124.0
50.3346 132.0
50.5302 125.0
50.7258 149.0
50.9214 123.0
51.117 121.0
51.3126 132.0
51.5082 99.0
51.7038 143.0
51.8994 101.0
52.095 111.0
52.2906 145.0
52.4862 138.0
52.6818 125.0
52.8774 121.0
53.073 115.0
53.2686 133.0
53.4642 132.0
53.6598 152.0
53.8554 273.0
54.051 160.0
54.2466 117.0
54.4422 95.0
54.6378 107.0
54.8334 98.0
55.0289 111.0
55.2245 123.0
55.4201 107.0
55.6157 111.0
55.8113 130.0
56.0069 116.0
56.2025 131.0
56.3981 502.0
56.5937 360.0
56.7893 106.0
56.9849 123.0
57.1805 128.0
57.3761 99.0
57.5717 119.0
57.7673 114.0
57.9629 111.0
58.1585 125.0
58.3541 108.0
58.5497 127.0
58.7453 119.0
58.9409 119.0
59.1365 158.0
59.3321 109.0
59.5277 88.0
59.7233 121.0
59.9188 106.0
59.9949 110.0

File: 2025_06_12_NIF_Xtal_DSC4_3_60_22m.xy
3.00043 127404.0
3.19603 101282.0
3.39163 78614.0
3.58722 60015.0
3.78282 44919.0
3.97841 32983.0
4.17401 23459.0
4.3696 16574.0
4.5652 11515.0
4.7608 8493.0
4.95639 7030.0
5.15199 6683.0
5.34758 6646.0
5.54318 5301.0
5.73878 4189.0
5.93437 3936.0
6.12997 3626.0
6.32556 3340.0
6.52116 3129.0
6.71676 2943.0
6.91235 2798.0
7.10795 2628.0
7.30354 2585.0
7.49914 3072.0
7.69474 4197.0
7.89033 9167.0
8.08593 21194.0
8.28152 13517.0
8.47712 3638.0
8.67271 2873.0
8.86831 2436.0
9.06391 2490.0
9.2595 2527.0
9.4551 2467.0
9.65069 2591.0
9.84629 2883.0
10.0419 4086.0
10.2375 8484.0
10.4331 20158.0
10.6287 13984.0
10.8243 5187.0
11.0199 3200.0
11.2155 3050.0
11.4111 4646.0
11.6067 12671.0
11.8022 33201.0
11.9978 34240.0
12.1934 13493.0
12.389 4825.0
12.5846 3090.0
12.7802 3366.0
12.9758 5628.0
13.1714 5071.0
13.367 4218.0
13.5626 3461.0
13.7582 2629.0
13.9538 2580.0
14.1494 2457.0
14.345 3005.0
14.5406 6802.0
14.7362 14852.0
14.9318 12625.0
15.1274 4029.0
15.323 2866.0
15.5186 2456.0
15.7142 2649.0
15.9098 4866.0
16.1054 16712.0
16.301 13715.0
16.4966 5595.0
16.6921 3525.0
16.8877 4351.0
17.0833 11646.0
17.2789 9284.0
17.4745 3956.0
17.6701 2547.0
17.8657 2409.0
18.0613 2838.0
18.2569 6297.0
18.4525 6884.0
18.6481 4265.0
18.8437 5747.0
19.0393 7791.0
19.2349 8105.0
19.4305 12841.0
19.6261 23008.0
19.8217 23984.0
20.0173 19371.0
20.2129 7719.0
20.4085 4204.0
20.6041 4209.0
20.7997 4484.0
20.9953 5592.0
21.1909 8022.0
21.3864 6448.0
21.582 5247.0
21.7776 10852.0
21.9732 11298.0
22.1688 12860.0
22.3644 12531.0
22.56 13511.0
22.7556 17192.0
22.9512 13235.0
23.1468 4950.0
23.3424 3552.0
23.538 3205.0
23.7336 3926.0
23.9292 4478.0
24.1248 9603.0
24.3204 15006.0
24.516 16915.0
24.7116 22939.0
24.9072 19976.0
25.1028 12473.0
25.2984 6025.0
25.494 4465.0
25.6896 11169.0
25.8852 21859.0
26.0808 12828.0
26.2763 10562.0
26.4719 13118.0
26.6675 10488.0
26.8631 15227.0
27.0587 19382.0
27.2543 9162.0
27.4499 3694.0
27.6455 4358.0
27.8411 5933.0
28.0367 6386.0
28.2323 4951.0
28.4279 3743.0
28.6235 4140.0
28.8191 3006.0
29.0147 3299.0
29.2103 3878.0
29.4059 3349.0
29.6015 5637.0
29.7971 5441.0
29.9927 4023.0
30.1883 3410.0
30.3839 3547.0
30.5795 3413.0
30.7751 3192.0
30.9706 3626.0
31.1662 4225.0
31.3618 5558.0
31.5574 6075.0
31.753 5961.0
31.9486 6273.0
32.1442 4168.0
32.3398 4217.0
32.5354 4221.0
32.731 4834.0
32.9266 5143.0
33.1222 4319.0
33.3178 3719.0
33.5134 3653.0
33.709 2309.0
33.9046 2014.0
34.1002 1970.0
34.2958 2117.0
34.4914 2484.0
34.687 2995.0
34.8826 2674.0
35.0782 2307.0
35.2738 3298.0
35.4694 3328.0
35.665 4482.0
35.8605 5443.0
36.0561 4223.0
36.2517 3928.0
36.4473 3038.0
36.6429 2392.0
36.8385 2730.0
37.0341 2633.0
37.2297 2454.0
37.4253 2903.0
37.6209 2929.0
37.8165 3518.0
38.0121 4239.0
38.2077 2949.0
38.4033 2239.0
38.5989 3009.0
38.7945 4586.0
38.9901 4678.0
39.1857 2569.0
39.3813 3103.0
39.5769 2923.0
39.7725 2581.0
39.9681 2558.0
40.1637 2680.0
40.3593 2824.0
40.5548 2376.0
40.7504 2776.0
40.946 2562.0
41.1416 2219.0
41.3372 1942.0
41.5328 1844.0
41.7284 2289.0
41.924 2717.0
42.1196 3646.0
42.3152 3874.0
42.5108 3317.0
42.7064 2297.0
42.902 2658.0
43.0976 2791.0
43.2932 2764.0
43.4888 2597.0
43.6844 2285.0
43.88 2115.0
44.0756 2566.0
44.2712 3605.0
44.4668 3520.0
44.6624 4106.0
44.858 3643.0
45.0536 2944.0
45.2492 2458.0
45.4447 2099.0
45.6403 1967.0
45.8359 2091.0
46.0315 2381.0
46.2271 2391.0
46.4227 2714.0
46.6183 2185.0
46.8139 1913.0
47.0095 2657.0
47.2051 3249.0
47.4007 2663.0
47.5963 2653.0
47.7919 2384.0
47.9875 2026.0
48.1831 1954.0
48.3787 2435.0
48.5743 2741.0
48.7699 2020.0
48.9655 2035.0
49.1611 2169.0
49.3567 2015.0
49.5523 1999.0
49.7479 1806.0
49.9435 2131.0
50.139 2425.0
50.3346 2159.0
50.5302 2096.0
50.7258 1905.0
50.9214 1662.0
51.117 1680.0
51.3126 1687.0
51.5082 1836.0
51.7038 1670.0
51.8994 1613.0
52.095 1587.0
52.2906 1431.0
52.4862 1570.0
52.6818 1713.0
52.8774 2077.0
53.073 1985.0
53.2686 1770.0
53.4642 1707.0
53.6598 1643.0
53.8554 1696.0
54.051 1764.0
54.2466 1570.0
54.4422 1928.0
54.6378 1631.0
54.8334 1489.0
55.0289 1351.0
55.2245 1471.0
55.4201 1495.0
55.6157 1649.0
55.8113 1566.0
56.0069 1474.0
56.2025 1440.0
56.3981 1536.0
56.5937 1541.0
56.7893 1423.0
56.9849 1261.0
57.1805 1262.0
57.3761 1431.0
57.5717 1541.0
57.7673 1426.0
57.9629 1250.0
58.1585 1319.0
58.3541 1342.0
58.5497 1233.0
58.7453 1181.0
58.9409 1121.0
59.1365 1079.0
59.3321 1145.0
59.5277 1170.0
59.7233 1221.0
59.9188 1175.0
59.9949 1193.0