Folder: Data/XRD

Note: XRD/README
X-ray Diffraction (XRD) data files from the yargerlab.

File: 2023_07_24_CBD_Liq_3_60_22min_pXRD.xy
3.00043 24135.0
3.19603 19178.0
3.39163 14728.0
3.58722 10995.0
3.78282 8160.0
3.97841 5890.0
4.17401 4326.0
4.3696 3180.0
4.5652 2548.0
4.7608 2466.0
4.95639 2467.0
5.15199 2655.0
5.34758 2915.0
5.54318 3137.0
5.73878 3524.0
5.93437 3866.0
6.12997 3913.0
6.32556 4143.0
6.52116 4565.0
6.71676 4803.0
6.91235 5004.0
7.10795 4997.0
7.30354 5307.0
7.49914 5387.0
7.69474 5557.0
7.89033 5476.0
8.08593 5346.0
8.28152 5425.0
8.47712 5296.0
8.67271 5505.0
8.86831 5250.0
9.06391 5180.0
9.2595 5079.0
9.4551 5014.0
9.65069 5123.0
9.84629 5137.0
10.0419 5002.0
10.2375 4976.0
10.4331 4937.0
10.6287 5036.0
10.8243 5037.0
11.0199 5257.0
11.2155 5335.0
11.4111 5311.0
11.6067 5418.0
11.8022 5638.0
11.9978 5916.0
12.1934 5977.0
12.389 6283.0
12.5846 6341.0
12.7802 6834.0
12.9758 6815.0
13.1714 7018.0
13.367 7299.0
13.5626 7511.0
13.7582 7852.0
13.9538 7819.0
14.1494 7963.0
14.345 8061.0
14.5406 8250.0
14.7362 8171.0
14.9318 8435.0
15.1274 8194.0
15.323 8267.0
15.5186 8578.0
15.7142 8223.0
15.9098 8517.0
16.1054 8334.0
16.301 8389.0
16.4966 8327.0
16.6921 8574.0
16.8877 8548.0
17.0833 8624.0
17.2789 8787.0
17.4745 8778.0
17.6701 8917.0
17.8657 8912.0
18.0613 8955.0
18.2569 9260.0
18.4525 9202.0
18.6481 9148.0
18.8437 9453.0
19.0393 9301.0
19.2349 9208.0
19.4305 9378.0
19.6261 9413.0
19.8217 9278.0
20.0173 9252.0
20.2129 9230.0
20.4085 9130.0
20.6041 8994.0
20.7997 8887.0
20.9953 8769.0
21.1909 8859.0
21.3864 8640.0
21.582 8451.0
21.7776 8165.0
21.9732 8124.0
22.1688 7737.0
22.3644 7616.0
22.56 7716.0
22.7556 7435.0
22.9512 7184.0
23.1468 6956.0
23.3424 6748.0
23.538 6499.0
23.7336 6483.0
23.9292 6334.0
24.1248 6030.0
24.3204 6021.0
24.516 5805.0
24.7116 5645.0
24.9072 5359.0
25.1028 5314.0
25.2984 5361.0
25.494 5181.0
25.6896 5026.0
25.8852 4751.0
26.0808 4644.0
26.2763 4557.0
26.4719 4473.0
26.6675 4398.0
26.8631 4305.0
27.0587 4201.0
27.2543 4202.0
27.4499 3991.0
27.6455 3973.0
27.8411 3619.0
28.0367 3853.0
28.2323 3734.0
28.4279 3696.0
28.6235 3525.0
28.8191 3541.0
29.0147 3433.0
29.2103 3309.0
29.4059 3251.0
29.6015 3206.0
29.7971 3163.0
29.9927 3142.0
30.1883 3066.0
30.3839 2982.0
30.5795 2939.0
30.7751 2915.0
30.9706 2885.0
31.1662 2823.0
31.3618 2733.0
31.5574 2818.0
31.753 2677.0
31.9486 2677.0
32.1442 2537.0
32.3398 2489.0
32.5354 2470.0
32.731 2440.0
32.9266 2468.0
33.1222 2454.0
33.3178 2375.0
33.5134 2349.0
33.709 2397.0
33.9046 2337.0
34.1002 2393.0
34.2958 2292.0
34.4914 2302.0
34.687 2325.0
34.8826 2238.0
35.0782 2331.0
35.2738 2298.0
35.4694 2216.0
35.665 2143.0
35.8605 2178.0
36.0561 2139.0
36.2517 2170.0
36.4473 2131.0
36.6429 2150.0
36.8385 2109.0
37.0341 2095.0
37.2297 2105.0
37.4253 2134.0
37.6209 2146.0
37.8165 2069.0
38.0121 2043.0
38.2077 1965.0
38.4033 2024.0
38.5989 2083.0
38.7945 2069.0
38.9901 2157.0
39.1857 2045.0
39.3813 2125.0
39.5769 2063.0
39.7725 2050.0
39.9681 2076.0
40.1637 1988.0
40.3593 1988.0
40.5548 1972.0
40.7504 1949.0
40.946 2031.0
41.1416 1986.0
41.3372 2064.0
41.5328 2025.0
41.7284 1962.0
41.924 1970.0
42.1196 1986.0
42.3152 1983.0
42.5108 1977.0
42.7064 1918.0
42.902 1936.0
43.0976 1911.0
43.2932 1845.0
43.4888 1840.0
43.6844 1808.0
43.88 1864.0
44.0756 1781.0
44.2712 1748.0
44.4668 1798.0
44.6624 1724.0
44.858 1759.0
45.0536 1647.0
45.2492 1674.0
45.4447 1634.0
45.6403 1657.0
45.8359 1744.0
46.0315 1605.0
46.2271 1610.0
46.4227 1546.0
46.6183 1594.0
46.8139 1609.0
47.0095 1497.0
47.2051 1479.0
47.4007 1548.0
47.5963 1471.0
47.7919 1495.0
47.9875 1473.0
48.1831 1385.0
48.3787 1431.0
48.5743 1504.0
48.7699 1429.0
48.9655 1419.0
49.1611 1414.0
49.3567 1410.0
49.5523 1260.0
49.7479 1375.0
49.9435 1300.0
50.139 1249.0
50.3346 1233.0
50.5302 1275.0
50.7258 1251.0
50.9214 1161.0
51.117 1224.0
51.3126 1198.0
51.5082 1215.0
51.7038 1166.0
51.8994 1126.0
52.095 1176.0
52.2906 1106.0
52.4862 1209.0
52.6818 1151.0
52.8774 1149.0
53.073 1071.0
53.2686 1093.0
53.4642 1089.0
53.6598 1087.0
53.8554 1127.0
54.051 1085.0
54.2466 1091.0
54.4422 1007.0
54.6378 1087.0
54.8334 1040.0
55.0289 1001.0
55.2245 1013.0
55.4201 1065.0
55.6157 1036.0
55.8113 996.0
56.0069 947.0
56.2025 954.0
56.3981 951.0
56.5937 940.0
56.7893 930.0
56.9849 973.0
57.1805 948.0
57.3761 904.0
57.5717 920.0
57.7673 918.0
57.9629 940.0
58.1585 909.0
58.3541 925.0
58.5497 877.0
58.7453 867.0
58.9409 864.0
59.1365 874.0
59.3321 873.0
59.5277 824.0
59.7233 847.0
59.9188 784.0
59.9949 826.0

File: 2023_07_24_CBD_Liq_3_60_22min_Qtz.xy
3.00043 24664.0
3.19603 19409.0
3.39163 14967.0
3.58722 11070.0
3.78282 8594.0
3.97841 6077.0
4.17401 4735.0
4.3696 3570.0
4.5652 2959.0
4.7608 2722.0
4.95639 2856.0
5.15199 2939.0
5.34758 3116.0
5.54318 3355.0
5.73878 3575.0
5.93437 3814.0
6.12997 3979.0
6.32556 4085.0
6.52116 4326.0
6.71676 4616.0
6.91235 4797.0
7.10795 5007.0
7.30354 5261.0
7.49914 5192.0
7.69474 5204.0
7.89033 5230.0
8.08593 5422.0
8.28152 5342.0
8.47712 5199.0
8.67271 5281.0
8.86831 5307.0
9.06391 5065.0
9.2595 5009.0
9.4551 5049.0
9.65069 4922.0
9.84629 4755.0
10.0419 4628.0
10.2375 4701.0
10.4331 4751.0
10.6287 4827.0
10.8243 4810.0
11.0199 4852.0
11.2155 4886.0
11.4111 4929.0
11.6067 5108.0
11.8022 5253.0
11.9978 5385.0
12.1934 5599.0
12.389 5599.0
12.5846 5762.0
12.7802 6327.0
12.9758 6295.0
13.1714 6369.0
13.367 6739.0
13.5626 6771.0
13.7582 7023.0
13.9538 7118.0
14.1494 7339.0
14.345 7414.0
14.5406 7495.0
14.7362 7660.0
14.9318 7501.0
15.1274 7509.0
15.323 7557.0
15.5186 7726.0
15.7142 7681.0
15.9098 7759.0
16.1054 7911.0
16.301 7753.0
16.4966 7798.0
16.6921 7968.0
16.8877 8032.0
17.0833 8189.0
17.2789 8095.0
17.4745 8310.0
17.6701 8508.0
17.8657 8480.0
18.0613 8709.0
18.2569 8641.0
18.4525 8748.0
18.6481 8863.0
18.8437 8943.0
19.0393 9215.0
19.2349 8998.0
19.4305 9188.0
19.6261 9139.0
19.8217 9108.0
20.0173 9102.0
20.2129 9313.0
20.4085 9100.0
20.6041 8926.0
20.7997 8952.0
20.9953 8872.0
21.1909 9001.0
21.3864 8783.0
21.582 8718.0
21.7776 8640.0
21.9732 8406.0
22.1688 8361.0
22.3644 8232.0
22.56 7876.0
22.7556 7855.0
22.9512 7497.0
23.1468 7632.0
23.3424 7329.0
23.538 7096.0
23.7336 6828.0
23.9292 6801.0
24.1248 6718.0
24.3204 6795.0
24.516 6313.0
24.7116 6385.0
24.9072 6164.0
25.1028 6165.0
25.2984 5966.0
25.494 5704.0
25.6896 5714.0
25.8852 5553.0
26.0808 5348.0
26.2763 5331.0
26.4719 5126.0
26.6675 5053.0
26.8631 4927.0
27.0587 4976.0
27.2543 4929.0
27.4499 4714.0
27.6455 4813.0
27.8411 4691.0
28.0367 4648.0
28.2323 4532.0
28.4279 4421.0
28.6235 4412.0
28.8191 4213.0
29.0147 4297.0
29.2103 4268.0
29.4059 4105.0
29.6015 4018.0
29.7971 3942.0
29.9927 3949.0
30.1883 3855.0
30.3839 3879.0
30.5795 3636.0
30.7751 3681.0
30.9706 3637.0
31.1662 3607.0
31.3618 3522.0
31.5574 3614.0
31.753 3548.0
31.9486 3458.0
32.1442 3339.0
32.3398 3404.0
32.5354 3279.0
32.731 3305.0
32.9266 3216.0
33.1222 3270.0
33.3178 3095.0
33.5134 3108.0
33.709 3164.0
33.9046 3113.0
34.1002 3078.0
34.2958 3091.0
34.4914 3112.0
34.687 3054.0
34.8826 3028.0
35.0782 2944.0
35.2738 2928.0
35.4694 2998.0
35.665 3002.0
35.8605 2995.0
36.0561 2938.0
36.2517 3018.0
36.4473 2991.0
36.6429 2891.0
36.8385 2941.0
37.0341 2969.0
37.2297 2961.0
37.4253 2911.0
37.6209 2947.0
37.8165 2908.0
38.0121 2934.0
38.2077 2840.0
38.4033 2950.0
38.5989 2862.0
38.7945 2904.0
38.9901 2894.0
39.1857 2929.0
39.3813 2882.0
39.5769 2864.0
39.7725 2906.0
39.9681 2858.0
40.1637 2903.0
40.3593 2979.0
40.5548 2864.0
40.7504 2782.0
40.946 2772.0
41.1416 2763.0
41.3372 2888.0
41.5328 2797.0
41.7284 2848.0
41.924 2803.0
42.1196 2885.0
42.3152 2717.0
42.5108 2730.0
42.7064 2827.0
42.902 2706.0
43.0976 2710.0
43.2932 2746.0
43.4888 2748.0
43.6844 2601.0
43.88 2612.0
44.0756 2618.0
44.2712 2629.0
44.4668 2647.0
44.6624 2642.0
44.858 2558.0
45.0536 2512.0
45.2492 2459.0
45.4447 2528.0
45.6403 2428.0
45.8359 2440.0
46.0315 2448.0
46.2271 2320.0
46.4227 2385.0
46.6183 2317.0
46.8139 2296.0
47.0095 2231.0
47.2051 2228.0
47.4007 2247.0
47.5963 2143.0
47.7919 2235.0
47.9875 2134.0
48.1831 2119.0
48.3787 1996.0
48.5743 2108.0
48.7699 2082.0
48.9655 1973.0
49.1611 2013.0
49.3567 1978.0
49.5523 2042.0
49.7479 1953.0
49.9435 1902.0
50.139 1944.0
50.3346 1937.0
50.5302 1873.0
50.7258 1879.0
50.9214 1816.0
51.117 1748.0
51.3126 1883.0
51.5082 1773.0
51.7038 1753.0
51.8994 1774.0
52.095 1728.0
52.2906 1760.0
52.4862 1688.0
52.6818 1753.0
52.8774 1728.0
53.073 1653.0
53.2686 1606.0
53.4642 1686.0
53.6598 1569.0
53.8554 1549.0
54.051 1592.0
54.2466 1649.0
54.4422 1561.0
54.6378 1621.0
54.8334 1577.0
55.0289 1482.0
55.2245 1513.0
55.4201 1457.0
55.6157 1498.0
55.8113 1457.0
56.0069 1467.0
56.2025 1484.0
56.3981 1481.0
56.5937 1478.0
56.7893 1430.0
56.9849 1426.0
57.1805 1441.0
57.3761 1370.0
57.5717 1394.0
57.7673 1414.0
57.9629 1361.0
58.1585 1425.0
58.3541 1374.0
58.5497 1351.0
58.7453 1361.0
58.9409 1377.0
59.1365 1338.0
59.3321 1335.0
59.5277 1379.0
59.7233 1366.0
59.9188 1308.0
59.9949 1392.0

File: 2023_07_24_pXRD_CBD_Heat_Gun.xy
3.00043 7753.0
3.19603 6094.0
3.39163 4601.0
3.58722 3350.0
3.78282 2505.0
3.97841 1734.0
4.17401 1287.0
4.3696 837.0
4.5652 560.0
4.7608 458.0
4.95639 526.0
5.15199 484.0
5.34758 425.0
5.54318 448.0
5.73878 421.0
5.93437 429.0
6.12997 362.0
6.32556 370.0
6.52116 330.0
6.71676 372.0
6.91235 350.0
7.10795 356.0
7.30354 344.0
7.49914 364.0
7.69474 388.0
7.89033 403.0
8.08593 480.0
8.28152 759.0
8.47712 498.0
8.67271 404.0
8.86831 469.0
9.06391 803.0
9.2595 2430.0
9.4551 3695.0
9.65069 11707.0
9.84629 3932.0
10.0419 2562.0
10.2375 2477.0
10.4331 564.0
10.6287 443.0
10.8243 460.0
11.0199 424.0
11.2155 515.0
11.4111 702.0
11.6067 2274.0
11.8022 2367.0
11.9978 565.0
12.1934 653.0
12.389 2154.0
12.5846 1616.0
12.7802 845.0
12.9758 2449.0
13.1714 2881.0
13.367 621.0
13.5626 1130.0
13.7582 2304.0
13.9538 566.0
14.1494 399.0
14.345 380.0
14.5406 480.0
14.7362 623.0
14.9318 2358.0
15.1274 2134.0
15.323 906.0
15.5186 462.0
15.7142 416.0
15.9098 534.0
16.1054 573.0
16.301 511.0
16.4966 1364.0
16.6921 782.0
16.8877 1405.0
17.0833 1935.0
17.2789 8907.0
17.4745 2257.0
17.6701 730.0
17.8657 1370.0
18.0613 739.0
18.2569 630.0
18.4525 1029.0
18.6481 4867.0
18.8437 5434.0
19.0393 2720.0
19.2349 984.0
19.4305 2449.0
19.6261 1278.0
19.8217 924.0
20.0173 707.0
20.2129 815.0
20.4085 3969.0
20.6041 2321.0
20.7997 2215.0
20.9953 1023.0
21.1909 707.0
21.3864 1096.0
21.582 5367.0
21.7776 1786.0
21.9732 5637.0
22.1688 5694.0
22.3644 997.0
22.56 3273.0
22.7556 1832.0
22.9512 1157.0
23.1468 837.0
23.3424 695.0
23.538 1437.0
23.7336 2189.0
23.9292 849.0
24.1248 710.0
24.3204 1851.0
24.516 931.0
24.7116 926.0
24.9072 590.0
25.1028 1172.0
25.2984 1384.0
25.494 1187.0
25.6896 574.0
25.8852 527.0
26.0808 748.0
26.2763 990.0
26.4719 1323.0
26.6675 951.0
26.8631 673.0
27.0587 1096.0
27.2543 753.0
27.4499 1180.0
27.6455 1361.0
27.8411 728.0
28.0367 645.0
28.2323 615.0
28.4279 814.0
28.6235 1181.0
28.8191 713.0
29.0147 1913.0
29.2103 749.0
29.4059 597.0
29.6015 507.0
29.7971 412.0
29.9927 413.0
30.1883 546.0
30.3839 565.0
30.5795 576.0
30.7751 508.0
30.9706 680.0
31.1662 850.0
31.3618 528.0
31.5574 393.0
31.753 416.0
31.9486 465.0
32.1442 450.0
32.3398 474.0
32.5354 687.0
32.731 564.0
32.9266 506.0
33.1222 553.0
33.3178 572.0
33.5134 598.0
33.709 490.0
33.9046 845.0
34.1002 671.0
34.2958 625.0
34.4914 761.0
34.687 903.0
34.8826 656.0
35.0782 619.0
35.2738 656.0
35.4694 438.0
35.665 448.0
35.8605 440.0
36.0561 406.0
36.2517 405.0
36.4473 580.0
36.6429 526.0
36.8385 519.0
37.0341 555.0
37.2297 441.0
37.4253 419.0
37.6209 470.0
37.8165 506.0
38.0121 458.0
38.2077 455.0
38.4033 425.0
38.5989 372.0
38.7945 402.0
38.9901 404.0
39.1857 407.0
39.3813 384.0
39.5769 388.0
39.7725 396.0
39.9681 346.0
40.1637 486.0
40.3593 505.0
40.5548 536.0
40.7504 347.0
40.946 354.0
41.1416 335.0
41.3372 346.0
41.5328 384.0
41.7284 410.0
41.924 418.0
42.1196 312.0
42.3152 401.0
42.5108 477.0
42.7064 440.0
42.902 385.0
43.0976 454.0
43.2932 496.0
43.4888 413.0
43.6844 345.0
43.88 322.0
44.0756 320.0
44.2712 391.0
44.4668 319.0
44.6624 348.0
44.858 388.0
45.0536 404.0
45.2492 477.0
45.4447 360.0
45.6403 302.0
45.8359 350.0
46.0315 374.0
46.2271 351.0
46.4227 375.0
46.6183 402.0
46.8139 420.0
47.0095 354.0
47.2051 299.0
47.4007 305.0
47.5963 296.0
47.7919 310.0
47.9875 331.0
48.1831 341.0
48.3787 287.0
48.5743 266.0
48.7699 245.0
48.9655 321.0
49.1611 306.0
49.3567 335.0
49.5523 354.0
49.7479 301.0
49.9435 334.0
50.139 360.0
50.3346 298.0
50.5302 292.0
50.7258 315.0
50.9214 278.0
51.117 237.0
51.3126 248.0
51.5082 296.0
51.7038 312.0
51.8994 275.0
52.095 350.0
52.2906 299.0
52.4862 263.0
52.6818 248.0
52.8774 260.0
53.073 239.0
53.2686 232.0
53.4642 241.0
53.6598 237.0
53.8554 237.0
54.051 223.0
54.2466 231.0
54.4422 246.0
54.6378 245.0
54.8334 261.0
55.0289 238.0
55.2245 239.0
55.4201 236.0
55.6157 208.0
55.8113 242.0
56.0069 235.0
56.2025 214.0
56.3981 219.0
56.5937 184.0
56.7893 189.0
56.9849 206.0
57.1805 195.0
57.3761 234.0
57.5717 180.0
57.7673 169.0
57.9629 199.0
58.1585 176.0
58.3541 203.0
58.5497 212.0
58.7453 212.0
58.9409 196.0
59.1365 177.0
59.3321 180.0
59.5277 198.0
59.7233 173.0
59.9188 205.0
59.9949 162.0

File: 2023_07_24_pXRD_CBD_Xtal_RT_3_60_8.xy
3.00043 7792.0
3.19603 6066.0
3.39163 4561.0
3.58722 3395.0
3.78282 2484.0
3.97841 1758.0
4.17401 1168.0
4.3696 880.0
4.5652 603.0
4.7608 448.0
4.95639 488.0
5.15199 538.0
5.34758 419.0
5.54318 427.0
5.73878 398.0
5.93437 386.0
6.12997 344.0
6.32556 318.0
6.52116 315.0
6.71676 298.0
6.91235 325.0
7.10795 288.0
7.30354 281.0
7.49914 303.0
7.69474 336.0
7.89033 339.0
8.08593 380.0
8.28152 573.0
8.47712 309.0
8.67271 304.0
8.86831 372.0
9.06391 684.0
9.2595 2129.0
9.4551 2154.0
9.65069 6801.0
9.84629 1468.0
10.0419 2668.0
10.2375 4033.0
10.4331 454.0
10.6287 387.0
10.8243 366.0
11.0199 361.0
11.2155 378.0
11.4111 631.0
11.6067 1838.0
11.8022 2078.0
11.9978 373.0
12.1934 517.0
12.389 1641.0
12.5846 1108.0
12.7802 678.0
12.9758 2224.0
13.1714 3557.0
13.367 566.0
13.5626 1164.0
13.7582 2418.0
13.9538 382.0
14.1494 370.0
14.345 345.0
14.5406 400.0
14.7362 566.0
14.9318 1947.0
15.1274 2140.0
15.323 977.0
15.5186 385.0
15.7142 425.0
15.9098 497.0
16.1054 581.0
16.301 379.0
16.4966 744.0
16.6921 654.0
16.8877 997.0
17.0833 1076.0
17.2789 5299.0
17.4745 2455.0
17.6701 636.0
17.8657 1166.0
18.0613 583.0
18.2569 529.0
18.4525 1017.0
18.6481 4629.0
18.8437 3968.0
19.0393 2303.0
19.2349 737.0
19.4305 1665.0
19.6261 1143.0
19.8217 826.0
20.0173 613.0
20.2129 705.0
20.4085 3839.0
20.6041 2688.0
20.7997 1480.0
20.9953 762.0
21.1909 589.0
21.3864 828.0
21.582 3253.0
21.7776 1579.0
21.9732 4575.0
22.1688 5500.0
22.3644 793.0
22.56 1751.0
22.7556 1880.0
22.9512 1352.0
23.1468 785.0
23.3424 627.0
23.538 1288.0
23.7336 4097.0
23.9292 776.0
24.1248 570.0
24.3204 1587.0
24.516 966.0
24.7116 968.0
24.9072 530.0
25.1028 983.0
25.2984 1198.0
25.494 724.0
25.6896 527.0
25.8852 437.0
26.0808 620.0
26.2763 815.0
26.4719 1211.0
26.6675 906.0
26.8631 561.0
27.0587 801.0
27.2543 670.0
27.4499 1301.0
27.6455 1513.0
27.8411 657.0
28.0367 514.0
28.2323 500.0
28.4279 669.0
28.6235 852.0
28.8191 678.0
29.0147 1697.0
29.2103 692.0
29.4059 535.0
29.6015 489.0
29.7971 326.0
29.9927 347.0
30.1883 407.0
30.3839 565.0
30.5795 496.0
30.7751 443.0
30.9706 567.0
31.1662 829.0
31.3618 442.0
31.5574 356.0
31.753 349.0
31.9486 398.0
32.1442 407.0
32.3398 393.0
32.5354 620.0
32.731 446.0
32.9266 420.0
33.1222 431.0
33.3178 491.0
33.5134 392.0
33.709 413.0
33.9046 614.0
34.1002 557.0
34.2958 414.0
34.4914 516.0
34.687 625.0
34.8826 479.0
35.0782 461.0
35.2738 521.0
35.4694 326.0
35.665 326.0
35.8605 381.0
36.0561 295.0
36.2517 365.0
36.4473 471.0
36.6429 509.0
36.8385 440.0
37.0341 453.0
37.2297 389.0
37.4253 415.0
37.6209 378.0
37.8165 467.0
38.0121 441.0
38.2077 428.0
38.4033 325.0
38.5989 338.0
38.7945 332.0
38.9901 381.0
39.1857 358.0
39.3813 398.0
39.5769 327.0
39.7725 338.0
39.9681 320.0
40.1637 424.0
40.3593 553.0
40.5548 419.0
40.7504 357.0
40.946 357.0
41.1416 314.0
41.3372 267.0
41.5328 293.0
41.7284 430.0
41.924 439.0
42.1196 318.0
42.3152 381.0
42.5108 449.0
42.7064 401.0
42.902 325.0
43.0976 354.0
43.2932 368.0
43.4888 354.0
43.6844 302.0
43.88 270.0
44.0756 264.0
44.2712 278.0
44.4668 305.0
44.6624 311.0
44.858 287.0
45.0536 413.0
45.2492 332.0
45.4447 370.0
45.6403 284.0
45.8359 313.0
46.0315 306.0
46.2271 353.0
46.4227 322.0
46.6183 315.0
46.8139 354.0
47.0095 275.0
47.2051 272.0
47.4007 232.0
47.5963 300.0
47.7919 256.0
47.9875 258.0
48.1831 275.0
48.3787 220.0
48.5743 290.0
48.7699 306.0
48.9655 317.0
49.1611 332.0
49.3567 286.0
49.5523 265.0
49.7479 239.0
49.9435 304.0
50.139 247.0
50.3346 279.0
50.5302 271.0
50.7258 216.0
50.9214 240.0
51.117 250.0
51.3126 216.0
51.5082 239.0
51.7038 248.0
51.8994 295.0
52.095 320.0
52.2906 237.0
52.4862 247.0
52.6818 239.0
52.8774 263.0
53.073 239.0
53.2686 192.0
53.4642 230.0
53.6598 228.0
53.8554 217.0
54.051 205.0
54.2466 233.0
54.4422 221.0
54.6378 176.0
54.8334 189.0
55.0289 212.0
55.2245 195.0
55.4201 183.0
55.6157 225.0
55.8113 201.0
56.0069 181.0
56.2025 172.0
56.3981 186.0
56.5937 196.0
56.7893 173.0
56.9849 172.0
57.1805 216.0
57.3761 193.0
57.5717 162.0
57.7673 160.0
57.9629 151.0
58.1585 171.0
58.3541 174.0
58.5497 150.0
58.7453 186.0
58.9409 196.0
59.1365 166.0
59.3321 190.0
59.5277 160.0
59.7233 167.0
59.9188 156.0
59.9949 154.0

File: 2025_06_03_Ag_Behenate_3_60_8min.xy
3.00043 44111.0
3.19603 34687.0
3.39163 26697.0
3.58722 20372.0
3.78282 15024.0
3.97841 11077.0
4.17401 8758.0
4.3696 7828.0
4.5652 8312.0
4.7608 2929.0
4.95639 2378.0
5.15199 2242.0
5.34758 2198.0
5.54318 1934.0
5.73878 2249.0
5.93437 5289.0
6.12997 2907.0
6.32556 1186.0
6.52116 945.0
6.71676 844.0
6.91235 856.0
7.10795 1178.0
7.30354 2146.0
7.49914 7950.0
7.69474 1633.0
7.89033 689.0
8.08593 597.0
8.28152 575.0
8.47712 573.0
8.67271 810.0
8.86831 1484.0
9.06391 4643.0
9.2595 766.0
9.4551 526.0
9.65069 499.0
9.84629 499.0
10.0419 573.0
10.2375 806.0
10.4331 1996.0
10.6287 3083.0
10.8243 557.0
11.0199 487.0
11.2155 438.0
11.4111 433.0
11.6067 489.0
11.8022 623.0
11.9978 1307.0
12.1934 922.0
12.389 478.0
12.5846 475.0
12.7802 439.0
12.9758 412.0
13.1714 488.0
13.367 645.0
13.5626 1700.0
13.7582 552.0
13.9538 432.0
14.1494 398.0
14.345 377.0
14.5406 364.0
14.7362 409.0
14.9318 522.0
15.1274 837.0
15.323 443.0
15.5186 428.0
15.7142 407.0
15.9098 365.0
16.1054 380.0
16.301 402.0
16.4966 587.0
16.6921 816.0
16.8877 391.0
17.0833 382.0
17.2789 340.0
17.4745 341.0
17.6701 359.0
17.8657 370.0
18.0613 401.0
18.2569 480.0
18.4525 361.0
18.6481 342.0
18.8437 448.0
19.0393 805.0
19.2349 2136.0
19.4305 1764.0
19.6261 886.0
19.8217 518.0
20.0173 440.0
20.2129 504.0
20.4085 426.0
20.6041 541.0
20.7997 464.0
20.9953 436.0
21.1909 467.0
21.3864 484.0
21.582 466.0
21.7776 525.0
21.9732 648.0
22.1688 640.0
22.3644 545.0
22.56 829.0
22.7556 1077.0
22.9512 1710.0
23.1468 1421.0
23.3424 612.0
23.538 861.0
23.7336 910.0
23.9292 589.0
24.1248 461.0
24.3204 485.0
24.516 604.0
24.7116 525.0
24.9072 597.0
25.1028 702.0
25.2984 856.0
25.494 1548.0
25.6896 1418.0
25.8852 918.0
26.0808 711.0
26.2763 755.0
26.4719 857.0
26.6675 1034.0
26.8631 915.0
27.0587 947.0
27.2543 1212.0
27.4499 1222.0
27.6455 1167.0
27.8411 959.0
28.0367 796.0
28.2323 719.0
28.4279 721.0
28.6235 822.0
28.8191 789.0
29.0147 672.0
29.2103 644.0
29.4059 644.0
29.6015 716.0
29.7971 618.0
29.9927 727.0
30.1883 669.0
30.3839 552.0
30.5795 669.0
30.7751 570.0
30.9706 577.0
31.1662 676.0
31.3618 624.0
31.5574 495.0
31.753 576.0
31.9486 516.0
32.1442 561.0
32.3398 639.0
32.5354 705.0
32.731 844.0
32.9266 1037.0
33.1222 838.0
33.3178 815.0
33.5134 947.0
33.709 1324.0
33.9046 843.0
34.1002 711.0
34.2958 636.0
34.4914 549.0
34.687 570.0
34.8826 601.0
35.0782 830.0
35.2738 725.0
35.4694 589.0
35.665 604.0
35.8605 526.0
36.0561 516.0
36.2517 631.0
36.4473 751.0
36.6429 638.0
36.8385 563.0
37.0341 574.0
37.2297 504.0
37.4253 498.0
37.6209 617.0
37.8165 745.0
38.0121 678.0
38.2077 524.0
38.4033 518.0
38.5989 560.0
38.7945 520.0
38.9901 589.0
39.1857 814.0
39.3813 659.0
39.5769 594.0
39.7725 573.0
39.9681 604.0
40.1637 813.0
40.3593 1055.0
40.5548 1006.0
40.7504 751.0
40.946 616.0
41.1416 527.0
41.3372 548.0
41.5328 611.0
41.7284 676.0
41.924 700.0
42.1196 627.0
42.3152 499.0
42.5108 431.0
42.7064 478.0
42.902 466.0
43.0976 571.0
43.2932 697.0
43.4888 562.0
43.6844 545.0
43.88 483.0
44.0756 496.0
44.2712 587.0
44.4668 532.0
44.6624 548.0
44.858 523.0
45.0536 518.0
45.2492 460.0
45.4447 451.0
45.6403 449.0
45.8359 460.0
46.0315 491.0
46.2271 493.0
46.4227 516.0
46.6183 513.0
46.8139 428.0
47.0095 399.0
47.2051 406.0
47.4007 425.0
47.5963 411.0
47.7919 459.0
47.9875 440.0
48.1831 454.0
48.3787 413.0
48.5743 437.0
48.7699 391.0
48.9655 482.0
49.1611 410.0
49.3567 412.0
49.5523 401.0
49.7479 453.0
49.9435 476.0
50.139 457.0
50.3346 434.0
50.5302 434.0
50.7258 438.0
50.9214 463.0
51.117 458.0
51.3126 485.0
51.5082 503.0
51.7038 467.0
51.8994 461.0
52.095 468.0
52.2906 462.0
52.4862 480.0
52.6818 454.0
52.8774 405.0
53.073 477.0
53.2686 449.0
53.4642 429.0
53.6598 468.0
53.8554 431.0
54.051 427.0
54.2466 416.0
54.4422 383.0
54.6378 406.0
54.8334 399.0
55.0289 439.0
55.2245 400.0
55.4201 397.0
55.6157 392.0
55.8113 404.0
56.0069 401.0
56.2025 331.0
56.3981 389.0
56.5937 409.0
56.7893 412.0
56.9849 440.0
57.1805 383.0
57.3761 343.0
57.5717 363.0
57.7673 371.0
57.9629 398.0
58.1585 431.0
58.3541 394.0
58.5497 365.0
58.7453 360.0
58.9409 408.0
59.1365 368.0
59.3321 311.0
59.5277 327.0
59.7233 312.0
59.9188 329.0
59.9949 351.0

File: 2025_06_03_CBD_3_60_8min.xy
3.00043 43855.0
3.19603 34825.0
3.39163 26776.0
3.58722 20303.0
3.78282 15082.0
3.97841 10786.0
4.17401 7784.0
4.3696 5501.0
4.5652 3771.0
4.7608 2661.0
4.95639 2533.0
5.15199 2932.0
5.34758 2134.0
5.54318 1782.0
5.73878 1369.0
5.93437 1336.0
6.12997 1206.0
6.32556 1181.0
6.52116 1083.0
6.71676 977.0
6.91235 984.0
7.10795 898.0
7.30354 927.0
7.49914 867.0
7.69474 834.0
7.89033 952.0
8.08593 1070.0
8.28152 1396.0
8.47712 950.0
8.67271 1005.0
8.86831 1133.0
9.06391 1802.0
9.2595 6867.0
9.4551 7145.0
9.65069 27026.0
9.84629 5951.0
10.0419 9136.0
10.2375 22657.0
10.4331 2605.0
10.6287 1259.0
10.8243 1232.0
11.0199 1176.0
11.2155 1220.0
11.4111 1598.0
11.6067 4248.0
11.8022 4397.0
11.9978 1270.0
12.1934 1404.0
12.389 3345.0
12.5846 3618.0
12.7802 1779.0
12.9758 5176.0
13.1714 7586.0
13.367 1695.0
13.5626 2542.0
13.7582 5745.0
13.9538 1393.0
14.1494 925.0
14.345 945.0
14.5406 1065.0
14.7362 1378.0
14.9318 4469.0
15.1274 10446.0
15.323 3276.0
15.5186 1307.0
15.7142 961.0
15.9098 1160.0
16.1054 1336.0
16.301 1076.0
16.4966 1619.0
16.6921 1680.0
16.8877 2367.0
17.0833 2979.0
17.2789 14261.0
17.4745 10168.0
17.6701 1877.0
17.8657 3684.0
18.0613 1719.0
18.2569 1443.0
18.4525 2392.0
18.6481 10504.0
18.8437 20504.0
19.0393 5435.0
19.2349 2186.0
19.4305 4542.0
19.6261 2643.0
19.8217 1747.0
20.0173 1572.0
20.2129 2085.0
20.4085 9596.0
20.6041 7965.0
20.7997 3512.0
20.9953 2270.0
21.1909 1536.0
21.3864 2383.0
21.582 8261.0
21.7776 4601.0
21.9732 9298.0
22.1688 17737.0
22.3644 3291.0
22.56 6323.0
22.7556 6259.0
22.9512 2363.0
23.1468 1839.0
23.3424 1571.0
23.538 2594.0
23.7336 3345.0
23.9292 1944.0
24.1248 1503.0
24.3204 3015.0
24.516 2578.0
24.7116 1957.0
24.9072 1300.0
25.1028 2021.0
25.2984 2597.0
25.494 2012.0
25.6896 1297.0
25.8852 1112.0
26.0808 1327.0
26.2763 2495.0
26.4719 2547.0
26.6675 1904.0
26.8631 1364.0
27.0587 1681.0
27.2543 1604.0
27.4499 2146.0
27.6455 2826.0
27.8411 1489.0
28.0367 1289.0
28.2323 1302.0
28.4279 1414.0
28.6235 1936.0
28.8191 1572.0
29.0147 3021.0
29.2103 1726.0
29.4059 1306.0
29.6015 1091.0
29.7971 892.0
29.9927 857.0
30.1883 908.0
30.3839 1198.0
30.5795 1214.0
30.7751 1173.0
30.9706 1307.0
31.1662 1685.0
31.3618 1046.0
31.5574 772.0
31.753 783.0
31.9486 871.0
32.1442 906.0
32.3398 911.0
32.5354 1598.0
32.731 1000.0
32.9266 1068.0
33.1222 1005.0
33.3178 1035.0
33.5134 888.0
33.709 891.0
33.9046 1557.0
34.1002 1322.0
34.2958 1026.0
34.4914 1101.0
34.687 1565.0
34.8826 2110.0
35.0782 1254.0
35.2738 1336.0
35.4694 919.0
35.665 795.0
35.8605 905.0
36.0561 777.0
36.2517 815.0
36.4473 1005.0
36.6429 1132.0
36.8385 1024.0
37.0341 922.0
37.2297 777.0
37.4253 844.0
37.6209 921.0
37.8165 955.0
38.0121 1143.0
38.2077 1038.0
38.4033 816.0
38.5989 739.0
38.7945 779.0
38.9901 874.0
39.1857 840.0
39.3813 794.0
39.5769 766.0
39.7725 802.0
39.9681 725.0
40.1637 968.0
40.3593 998.0
40.5548 1154.0
40.7504 837.0
40.946 764.0
41.1416 699.0
41.3372 692.0
41.5328 767.0
41.7284 974.0
41.924 865.0
42.1196 686.0
42.3152 875.0
42.5108 1020.0
42.7064 990.0
42.902 920.0
43.0976 826.0
43.2932 1073.0
43.4888 834.0
43.6844 818.0
43.88 665.0
44.0756 622.0
44.2712 797.0
44.4668 629.0
44.6624 681.0
44.858 721.0
45.0536 903.0
45.2492 795.0
45.4447 701.0
45.6403 615.0
45.8359 734.0
46.0315 729.0
46.2271 760.0
46.4227 823.0
46.6183 820.0
46.8139 741.0
47.0095 655.0
47.2051 609.0
47.4007 609.0
47.5963 764.0
47.7919 624.0
47.9875 675.0
48.1831 614.0
48.3787 605.0
48.5743 548.0
48.7699 678.0
48.9655 705.0
49.1611 695.0
49.3567 728.0
49.5523 643.0
49.7479 592.0
49.9435 646.0
50.139 677.0
50.3346 612.0
50.5302 553.0
50.7258 579.0
50.9214 542.0
51.117 540.0
51.3126 511.0
51.5082 515.0
51.7038 595.0
51.8994 570.0
52.095 648.0
52.2906 594.0
52.4862 568.0
52.6818 540.0
52.8774 544.0
53.073 528.0
53.2686 479.0
53.4642 478.0
53.6598 507.0
53.8554 468.0
54.051 486.0
54.2466 571.0
54.4422 459.0
54.6378 449.0
54.8334 510.0
55.0289 511.0
55.2245 475.0
55.4201 478.0
55.6157 533.0
55.8113 472.0
56.0069 472.0
56.2025 443.0
56.3981 430.0
56.5937 403.0
56.7893 449.0
56.9849 415.0
57.1805 473.0
57.3761 406.0
57.5717 411.0
57.7673 352.0
57.9629 394.0
58.1585 389.0
58.3541 391.0
58.5497 456.0
58.7453 427.0
58.9409 426.0
59.1365 379.0
59.3321 385.0
59.5277 430.0
59.7233 383.0
59.9188 351.0
59.9949 334.0