Folder: Data/XRD (part 4)

File: 2025_06_07_aHIF_Lyoph_3_60_22min_XRD.xy
3.00043 135534.0
3.19603 107724.0
3.39163 82723.0
3.58722 63169.0
3.78282 46898.0
3.97841 34453.0
4.17401 24578.0
4.3696 17150.0
4.5652 12114.0
4.7608 8703.0
4.95639 7257.0
5.15199 7060.0
5.34758 6900.0
5.54318 5822.0
5.73878 4675.0
5.93437 4497.0
6.12997 4321.0
6.32556 4090.0
6.52116 3854.0
6.71676 3969.0
6.91235 3851.0
7.10795 3734.0
7.30354 3729.0
7.49914 3759.0
7.69474 3713.0
7.89033 3815.0
8.08593 3715.0
8.28152 3915.0
8.47712 4001.0
8.67271 3942.0
8.86831 4114.0
9.06391 4025.0
9.2595 3989.0
9.4551 4169.0
9.65069 4011.0
9.84629 3957.0
10.0419 3964.0
10.2375 3807.0
10.4331 3774.0
10.6287 3724.0
10.8243 3660.0
11.0199 3645.0
11.2155 3606.0
11.4111 3622.0
11.6067 3600.0
11.8022 3508.0
11.9978 3497.0
12.1934 3328.0
12.389 3464.0
12.5846 3296.0
12.7802 3315.0
12.9758 3345.0
13.1714 3295.0
13.367 3296.0
13.5626 3414.0
13.7582 3401.0
13.9538 3449.0
14.1494 3519.0
14.345 3571.0
14.5406 3562.0
14.7362 3638.0
14.9318 3799.0
15.1274 3837.0
15.323 3909.0
15.5186 3965.0
15.7142 4007.0
15.9098 4250.0
16.1054 4150.0
16.301 4474.0
16.4966 4395.0
16.6921 4606.0
16.8877 4860.0
17.0833 4856.0
17.2789 5107.0
17.4745 5228.0
17.6701 5586.0
17.8657 5548.0
18.0613 5864.0
18.2569 6020.0
18.4525 6240.0
18.6481 6547.0
18.8437 6836.0
19.0393 6901.0
19.2349 7168.0
19.4305 6644.0
19.6261 6837.0
19.8217 6510.0
20.0173 6368.0
20.2129 6391.0
20.4085 6290.0
20.6041 6046.0
20.7997 6049.0
20.9953 5983.0
21.1909 5892.0
21.3864 5597.0
21.582 5674.0
21.7776 5535.0
21.9732 5410.0
22.1688 5203.0
22.3644 5138.0
22.56 5009.0
22.7556 5001.0
22.9512 5009.0
23.1468 4966.0
23.3424 4948.0
23.538 4880.0
23.7336 4700.0
23.9292 4749.0
24.1248 4666.0
24.3204 4397.0
24.516 4443.0
24.7116 4184.0
24.9072 4284.0
25.1028 4134.0
25.2984 4039.0
25.494 4098.0
25.6896 3896.0
25.8852 3828.0
26.0808 3850.0
26.2763 3758.0
26.4719 3648.0
26.6675 3555.0
26.8631 3538.0
27.0587 3461.0
27.2543 3331.0
27.4499 3253.0
27.6455 3368.0
27.8411 3203.0
28.0367 3117.0
28.2323 3266.0
28.4279 3098.0
28.6235 3101.0
28.8191 3097.0
29.0147 2919.0
29.2103 2857.0
29.4059 2795.0
29.6015 2834.0
29.7971 2818.0
29.9927 2791.0
30.1883 2684.0
30.3839 2722.0
30.5795 2740.0
30.7751 2569.0
30.9706 2580.0
31.1662 2507.0
31.3618 2580.0
31.5574 2570.0
31.753 2579.0
31.9486 2504.0
32.1442 2492.0
32.3398 2393.0
32.5354 2412.0
32.731 2334.0
32.9266 2388.0
33.1222 2346.0
33.3178 2346.0
33.5134 2357.0
33.709 2350.0
33.9046 2278.0
34.1002 2240.0
34.2958 2269.0
34.4914 2325.0
34.687 2242.0
34.8826 2261.0
35.0782 2226.0
35.2738 2137.0
35.4694 2246.0
35.665 2107.0
35.8605 2177.0
36.0561 2163.0
36.2517 2066.0
36.4473 2124.0
36.6429 2067.0
36.8385 2059.0
37.0341 2050.0
37.2297 2121.0
37.4253 2125.0
37.6209 2096.0
37.8165 1999.0
38.0121 2044.0
38.2077 2055.0
38.4033 2058.0
38.5989 1991.0
38.7945 1949.0
38.9901 2021.0
39.1857 1942.0
39.3813 1937.0
39.5769 1936.0
39.7725 1963.0
39.9681 1942.0
40.1637 1911.0
40.3593 1871.0
40.5548 1830.0
40.7504 1891.0
40.946 1879.0
41.1416 1867.0
41.3372 1914.0
41.5328 1714.0
41.7284 1859.0
41.924 1811.0
42.1196 1775.0
42.3152 1811.0
42.5108 1705.0
42.7064 1670.0
42.902 1712.0
43.0976 1764.0
43.2932 1709.0
43.4888 1744.0
43.6844 1625.0
43.88 1646.0
44.0756 1672.0
44.2712 1706.0
44.4668 1645.0
44.6624 1611.0
44.858 1591.0
45.0536 1649.0
45.2492 1619.0
45.4447 1581.0
45.6403 1480.0
45.8359 1539.0
46.0315 1526.0
46.2271 1527.0
46.4227 1493.0
46.6183 1459.0
46.8139 1470.0
47.0095 1404.0
47.2051 1448.0
47.4007 1393.0
47.5963 1376.0
47.7919 1421.0
47.9875 1394.0
48.1831 1383.0
48.3787 1336.0
48.5743 1356.0
48.7699 1316.0
48.9655 1288.0
49.1611 1333.0
49.3567 1279.0
49.5523 1326.0
49.7479 1306.0
49.9435 1314.0
50.139 1263.0
50.3346 1247.0
50.5302 1257.0
50.7258 1285.0
50.9214 1305.0
51.117 1295.0
51.3126 1211.0
51.5082 1293.0
51.7038 1212.0
51.8994 1262.0
52.095 1254.0
52.2906 1146.0
52.4862 1159.0
52.6818 1173.0
52.8774 1156.0
53.073 1090.0
53.2686 1055.0
53.4642 1116.0
53.6598 1132.0
53.8554 1078.0
54.051 1081.0
54.2466 1083.0
54.4422 1050.0
54.6378 1065.0
54.8334 1042.0
55.0289 1090.0
55.2245 1018.0
55.4201 1020.0
55.6157 1068.0
55.8113 1061.0
56.0069 1096.0
56.2025 1074.0
56.3981 985.0
56.5937 967.0
56.7893 925.0
56.9849 984.0
57.1805 970.0
57.3761 886.0
57.5717 980.0
57.7673 918.0
57.9629 898.0
58.1585 939.0
58.3541 940.0
58.5497 917.0
58.7453 882.0
58.9409 830.0
59.1365 892.0
59.3321 890.0
59.5277 871.0
59.7233 845.0
59.9188 868.0
59.9949 847.0

File: 2025_06_07_aHIF_Lyoph_Powder_5_90_2m.xy
5.00543 108.0
5.29883 101.0
5.59222 84.0
5.88561 82.0
6.17901 68.0
6.4724 61.0
6.7658 50.0
7.05919 56.0
7.35258 53.0
7.64598 71.0
7.93937 64.0
8.23277 63.0
8.52616 49.0
8.81955 68.0
9.11295 76.0
9.40634 55.0
9.69974 54.0
9.99313 71.0
10.2865 51.0
10.5799 67.0
10.8733 57.0
11.1667 53.0
11.4601 64.0
11.7535 62.0
12.0469 55.0
12.3403 61.0
12.6337 53.0
12.9271 63.0
13.2205 64.0
13.5139 46.0
13.8072 64.0
14.1006 54.0
14.394 58.0
14.6874 72.0
14.9808 61.0
15.2742 75.0
15.5676 72.0
15.861 74.0
16.1544 91.0
16.4478 68.0
16.7412 72.0
17.0346 90.0
17.328 85.0
17.6214 82.0
17.9148 100.0
18.2082 88.0
18.5016 126.0
18.7949 108.0
19.0883 125.0
19.3817 134.0
19.6751 109.0
19.9685 115.0
20.2619 112.0
20.5553 106.0
20.8487 113.0
21.1421 100.0
21.4355 102.0
21.7289 100.0
22.0223 104.0
22.3157 84.0
22.6091 95.0
22.9025 93.0
23.1959 78.0
23.4892 70.0
23.7826 84.0
24.076 60.0
24.3694 76.0
24.6628 83.0
24.9562 82.0
25.2496 69.0
25.543 68.0
25.8364 71.0
26.1298 79.0
26.4232 70.0
26.7166 55.0
27.01 72.0
27.3034 49.0
27.5968 74.0
27.8902 42.0
28.1835 70.0
28.4769 62.0
28.7703 56.0
29.0637 60.0
29.3571 41.0
29.6505 60.0
29.9439 48.0
30.2373 48.0
30.5307 46.0
30.8241 38.0
31.1175 52.0
31.4109 43.0
31.7043 39.0
31.9977 49.0
32.2911 42.0
32.5845 39.0
32.8779 37.0
33.1712 52.0
33.4646 43.0
33.758 41.0
34.0514 34.0
34.3448 36.0
34.6382 46.0
34.9316 34.0
35.225 33.0
35.5184 27.0
35.8118 40.0
36.1052 29.0
36.3986 38.0
36.692 38.0
36.9854 34.0
37.2788 33.0
37.5722 39.0
37.8655 32.0
38.1589 32.0
38.4523 34.0
38.7457 35.0
39.0391 40.0
39.3325 41.0
39.6259 36.0
39.9193 38.0
40.2127 37.0
40.5061 33.0
40.7995 25.0
41.0929 30.0
41.3863 22.0
41.6797 35.0
41.9731 30.0
42.2665 24.0
42.5598 25.0
42.8532 20.0
43.1466 29.0
43.44 25.0
43.7334 29.0
44.0268 21.0
44.3202 26.0
44.6136 29.0
44.907 31.0
45.2004 33.0
45.4938 28.0
45.7872 29.0
46.0806 24.0
46.374 24.0
46.6674 23.0
46.9608 25.0
47.2542 29.0
47.5475 35.0
47.8409 18.0
48.1343 19.0
48.4277 23.0
48.7211 21.0
49.0145 14.0
49.3079 24.0
49.6013 28.0
49.8947 23.0
50.1881 12.0
50.4815 13.0
50.7749 13.0
51.0683 19.0
51.3617 17.0
51.6551 23.0
51.9485 20.0
52.2418 21.0
52.5352 14.0
52.8286 14.0
53.122 16.0
53.4154 16.0
53.7088 15.0
54.0022 16.0
54.2956 15.0
54.589 12.0
54.8824 15.0
55.1758 21.0
55.4692 18.0
55.7626 17.0
56.056 20.0
56.3494 16.0
56.6428 8.0
56.9361 17.0
57.2295 13.0
57.5229 16.0
57.8163 13.0
58.1097 19.0
58.4031 13.0
58.6965 11.0
58.9899 20.0
59.2833 22.0
59.5767 18.0
59.8701 14.0
60.1635 13.0
60.4569 11.0
60.7503 15.0
61.0437 9.0
61.3371 14.0
61.6305 10.0
61.9238 12.0
62.2172 25.0
62.5106 12.0
62.804 12.0
63.0974 8.0
63.3908 12.0
63.6842 8.0
63.9776 10.0
64.271 13.0
64.5644 12.0
64.8578 12.0
65.1512 6.0
65.4446 9.0
65.738 8.0
66.0314 14.0
66.3248 8.0
66.6181 19.0
66.9115 11.0
67.2049 14.0
67.4983 14.0
67.7917 10.0
68.0851 8.0
68.3785 9.0
68.6719 13.0
68.9653 5.0
69.2587 15.0
69.5521 8.0
69.8455 8.0
70.1389 9.0
70.4323 10.0
70.7257 8.0
71.0191 15.0
71.3125 3.0
71.6058 8.0
71.8992 15.0
72.1926 10.0
72.486 9.0
72.7794 10.0
73.0728 7.0
73.3662 14.0
73.6596 16.0
73.953 8.0
74.2464 2.0
74.5398 13.0
74.8332 9.0
75.1266 8.0
75.42 7.0
75.7134 7.0
76.0068 13.0
76.3001 10.0
76.5935 7.0
76.8869 8.0
77.1803 11.0
77.4737 7.0
77.7671 11.0
78.0605 8.0
78.3539 9.0
78.6473 12.0
78.9407 7.0
79.2341 11.0
79.5275 5.0
79.8209 8.0
80.1143 8.0
80.4077 15.0
80.7011 9.0
80.9944 10.0
81.2878 10.0
81.5812 5.0
81.8746 8.0
82.168 7.0
82.4614 10.0
82.7548 10.0
83.0482 11.0
83.3416 11.0
83.635 10.0
83.9284 12.0
84.2218 16.0
84.5152 10.0
84.8086 9.0
85.102 9.0
85.3954 8.0
85.6888 4.0
85.9821 8.0
86.2755 8.0
86.5689 4.0
86.8623 8.0
87.1557 9.0
87.4491 16.0
87.7425 9.0
88.0359 2.0
88.3293 8.0
88.6227 20.0
88.9161 6.0
89.2095 8.0
89.5029 6.0
89.7963 12.0
89.9919 10.0

File: 2025_06_07_aNIF_3_60_22min.xy
3.00043 133188.0
3.19603 105935.0
3.39163 81387.0
3.58722 61688.0
3.78282 45966.0
3.97841 33360.0
4.17401 23523.0
4.3696 16252.0
4.5652 11152.0
4.7608 8242.0
4.95639 6802.0
5.15199 6319.0
5.34758 6193.0
5.54318 4966.0
5.73878 3641.0
5.93437 3255.0
6.12997 2913.0
6.32556 2749.0
6.52116 2336.0
6.71676 2031.0
6.91235 1808.0
7.10795 1664.0
7.30354 1477.0
7.49914 1337.0
7.69474 1346.0
7.89033 1190.0
8.08593 1201.0
8.28152 1148.0
8.47712 1122.0
8.67271 1083.0
8.86831 1077.0
9.06391 1037.0
9.2595 1121.0
9.4551 1210.0
9.65069 1286.0
9.84629 1889.0
10.0419 4649.0
10.2375 12154.0
10.4331 3096.0
10.6287 1994.0
10.8243 3440.0
11.0199 1955.0
11.2155 1212.0
11.4111 1120.0
11.6067 1117.0
11.8022 1136.0
11.9978 1059.0
12.1934 1040.0
12.389 1089.0
12.5846 1123.0
12.7802 1127.0
12.9758 1579.0
13.1714 2569.0
13.367 1266.0
13.5626 1100.0
13.7582 1027.0
13.9538 1037.0
14.1494 1068.0
14.345 1566.0
14.5406 2354.0
14.7362 1468.0
14.9318 1183.0
15.1274 1214.0
15.323 981.0
15.5186 989.0
15.7142 1084.0
15.9098 1471.0
16.1054 3492.0
16.301 6664.0
16.4966 5067.0
16.6921 2921.0
16.8877 1136.0
17.0833 1053.0
17.2789 1034.0
17.4745 1128.0
17.6701 1659.0
17.8657 1120.0
18.0613 956.0
18.2569 972.0
18.4525 912.0
18.6481 945.0
18.8437 914.0
19.0393 960.0
19.2349 1143.0
19.4305 1718.0
19.6261 1770.0
19.8217 1116.0
20.0173 1118.0
20.2129 1588.0
20.4085 3815.0
20.6041 3552.0
20.7997 1574.0
20.9953 1404.0
21.1909 1085.0
21.3864 1176.0
21.582 1651.0
21.7776 2893.0
21.9732 2696.0
22.1688 1606.0
22.3644 1292.0
22.56 1331.0
22.7556 1582.0
22.9512 3469.0
23.1468 11150.0
23.3424 8984.0
23.538 1873.0
23.7336 1384.0
23.9292 1355.0
24.1248 1477.0
24.3204 2891.0
24.516 6329.0
24.7116 2316.0
24.9072 1471.0
25.1028 2126.0
25.2984 4605.0
25.494 3420.0
25.6896 1770.0
25.8852 1478.0
26.0808 2005.0
26.2763 5254.0
26.4719 6753.0
26.6675 2027.0
26.8631 1381.0
27.0587 1542.0
27.2543 2019.0
27.4499 1902.0
27.6455 1572.0
27.8411 1248.0
28.0367 1129.0
28.2323 1253.0
28.4279 1193.0
28.6235 1131.0
28.8191 1206.0
29.0147 1808.0
29.2103 1981.0
29.4059 3159.0
29.6015 2455.0
29.7971 1383.0
29.9927 2330.0
30.1883 2595.0
30.3839 1743.0
30.5795 1303.0
30.7751 1407.0
30.9706 1498.0
31.1662 1050.0
31.3618 1058.0
31.5574 1078.0
31.753 1335.0
31.9486 2060.0
32.1442 1428.0
32.3398 1290.0
32.5354 2015.0
32.731 2051.0
32.9266 1440.0
33.1222 1150.0
33.3178 1386.0
33.5134 1757.0
33.709 1663.0
33.9046 1284.0
34.1002 1049.0
34.2958 1104.0
34.4914 1253.0
34.687 1608.0
34.8826 1370.0
35.0782 1074.0
35.2738 1058.0
35.4694 954.0
35.665 1115.0
35.8605 1610.0
36.0561 1605.0
36.2517 1100.0
36.4473 1032.0
36.6429 1255.0
36.8385 1478.0
37.0341 1192.0
37.2297 1140.0
37.4253 1265.0
37.6209 1175.0
37.8165 1021.0
38.0121 1019.0
38.2077 1029.0
38.4033 1085.0
38.5989 982.0
38.7945 959.0
38.9901 1118.0
39.1857 1151.0
39.3813 1533.0
39.5769 1913.0
39.7725 1806.0
39.9681 1492.0
40.1637 1074.0
40.3593 1199.0
40.5548 1243.0
40.7504 1336.0
40.946 1263.0
41.1416 1144.0
41.3372 1081.0
41.5328 1159.0
41.7284 1171.0
41.924 1063.0
42.1196 1259.0
42.3152 1110.0
42.5108 1024.0
42.7064 1090.0
42.902 1147.0
43.0976 1206.0
43.2932 972.0
43.4888 875.0
43.6844 921.0
43.88 903.0
44.0756 1009.0
44.2712 1308.0
44.4668 1189.0
44.6624 1117.0
44.858 980.0
45.0536 992.0
45.2492 994.0
45.4447 980.0
45.6403 1027.0
45.8359 1130.0
46.0315 1000.0
46.2271 904.0
46.4227 937.0
46.6183 946.0
46.8139 983.0
47.0095 1026.0
47.2051 1264.0
47.4007 1345.0
47.5963 1364.0
47.7919 1197.0
47.9875 1103.0
48.1831 1001.0
48.3787 918.0
48.5743 901.0
48.7699 972.0
48.9655 907.0
49.1611 903.0
49.3567 918.0
49.5523 910.0
49.7479 1125.0
49.9435 1276.0
50.139 1066.0
50.3346 971.0
50.5302 956.0
50.7258 933.0
50.9214 954.0
51.117 804.0
51.3126 864.0
51.5082 844.0
51.7038 843.0
51.8994 882.0
52.095 847.0
52.2906 828.0
52.4862 818.0
52.6818 909.0
52.8774 857.0
53.073 810.0
53.2686 790.0
53.4642 783.0
53.6598 783.0
53.8554 816.0
54.051 863.0
54.2466 869.0
54.4422 843.0
54.6378 820.0
54.8334 750.0
55.0289 789.0
55.2245 793.0
55.4201 820.0
55.6157 781.0
55.8113 816.0
56.0069 829.0
56.2025 774.0
56.3981 787.0
56.5937 767.0
56.7893 745.0
56.9849 710.0
57.1805 687.0
57.3761 699.0
57.5717 685.0
57.7673 703.0
57.9629 614.0
58.1585 668.0
58.3541 637.0
58.5497 654.0
58.7453 689.0
58.9409 669.0
59.1365 641.0
59.3321 695.0
59.5277 705.0
59.7233 630.0
59.9188 654.0
59.9949 583.0

File: 2025_06_07_CeO2_5_90_2min_pXRD.xy
5.00543 93.0
5.29883 116.0
5.59222 80.0
5.88561 55.0
6.17901 46.0
6.4724 29.0
6.7658 48.0
7.05919 19.0
7.35258 21.0
7.64598 19.0
7.93937 21.0
8.23277 18.0
8.52616 12.0
8.81955 14.0
9.11295 9.0
9.40634 19.0
9.69974 18.0
9.99313 13.0
10.2865 14.0
10.5799 10.0
10.8733 13.0
11.1667 20.0
11.4601 17.0
11.7535 15.0
12.0469 19.0
12.3403 16.0
12.6337 13.0
12.9271 18.0
13.2205 16.0
13.5139 16.0
13.8072 13.0
14.1006 17.0
14.394 16.0
14.6874 18.0
14.9808 15.0
15.2742 21.0
15.5676 14.0
15.861 25.0
16.1544 12.0
16.4478 16.0
16.7412 16.0
17.0346 17.0
17.328 17.0
17.6214 9.0
17.9148 12.0
18.2082 12.0
18.5016 14.0
18.7949 19.0
19.0883 13.0
19.3817 19.0
19.6751 6.0
19.9685 10.0
20.2619 16.0
20.5553 12.0
20.8487 22.0
21.1421 13.0
21.4355 8.0
21.7289 8.0
22.0223 9.0
22.3157 6.0
22.6091 8.0
22.9025 9.0
23.1959 20.0
23.4892 18.0
23.7826 15.0
24.076 13.0
24.3694 12.0
24.6628 8.0
24.9562 11.0
25.2496 14.0
25.543 9.0
25.8364 6.0
26.1298 16.0
26.4232 15.0
26.7166 11.0
27.01 13.0
27.3034 11.0
27.5968 21.0
27.8902 25.0
28.1835 31.0
28.4769 357.0
28.7703 90.0
29.0637 26.0
29.3571 17.0
29.6505 23.0
29.9439 13.0
30.2373 11.0
30.5307 12.0
30.8241 7.0
31.1175 10.0
31.4109 13.0
31.7043 16.0
31.9977 6.0
32.2911 11.0
32.5845 11.0
32.8779 22.0
33.1712 191.0
33.4646 11.0
33.758 10.0
34.0514 11.0
34.3448 7.0
34.6382 9.0
34.9316 12.0
35.225 8.0
35.5184 7.0
35.8118 6.0
36.1052 9.0
36.3986 9.0
36.692 8.0
36.9854 9.0
37.2788 8.0
37.5722 11.0
37.8655 12.0
38.1589 7.0
38.4523 11.0
38.7457 7.0
39.0391 11.0
39.3325 6.0
39.6259 15.0
39.9193 11.0
40.2127 4.0
40.5061 10.0
40.7995 12.0
41.0929 10.0
41.3863 11.0
41.6797 11.0
41.9731 16.0
42.2665 10.0
42.5598 10.0
42.8532 7.0
43.1466 2.0
43.44 9.0
43.7334 10.0
44.0268 10.0
44.3202 10.0
44.6136 8.0
44.907 9.0
45.2004 6.0
45.4938 10.0
45.7872 9.0
46.0806 8.0
46.374 7.0
46.6674 6.0
46.9608 11.0
47.2542 19.0
47.5475 426.0
47.8409 35.0
48.1343 11.0
48.4277 11.0
48.7211 6.0
49.0145 9.0
49.3079 12.0
49.6013 9.0
49.8947 9.0
50.1881 9.0
50.4815 9.0
50.7749 9.0
51.0683 10.0
51.3617 7.0
51.6551 7.0
51.9485 6.0
52.2418 14.0
52.5352 7.0
52.8286 8.0
53.122 3.0
53.4154 11.0
53.7088 11.0
54.0022 6.0
54.2956 6.0
54.589 4.0
54.8824 12.0
55.1758 4.0
55.4692 6.0
55.7626 7.0
56.056 23.0
56.3494 301.0
56.6428 33.0
56.9361 9.0
57.2295 10.0
57.5229 9.0
57.8163 6.0
58.1097 15.0
58.4031 13.0
58.6965 8.0
58.9899 21.0
59.2833 48.0
59.5767 6.0
59.8701 8.0
60.1635 5.0
60.4569 9.0
60.7503 9.0
61.0437 6.0
61.3371 12.0
61.6305 10.0
61.9238 7.0
62.2172 15.0
62.5106 4.0
62.804 5.0
63.0974 4.0
63.3908 6.0
63.6842 8.0
63.9776 9.0
64.271 13.0
64.5644 1.0
64.8578 4.0
65.1512 5.0
65.4446 12.0
65.738 5.0
66.0314 1.0
66.3248 9.0
66.6181 4.0
66.9115 2.0
67.2049 4.0
67.4983 6.0
67.7917 9.0
68.0851 7.0
68.3785 5.0
68.6719 9.0
68.9653 7.0
69.2587 23.0
69.5521 22.0
69.8455 7.0
70.1389 4.0
70.4323 2.0
70.7257 8.0
71.0191 12.0
71.3125 1.0
71.6058 9.0
71.8992 10.0
72.1926 5.0
72.486 10.0
72.7794 10.0
73.0728 11.0
73.3662 7.0
73.6596 3.0
73.953 7.0
74.2464 10.0
74.5398 4.0
74.8332 6.0
75.1266 7.0
75.42 3.0
75.7134 8.0
76.0068 4.0
76.3001 8.0
76.5935 37.0
76.8869 49.0
77.1803 15.0
77.4737 8.0
77.7671 2.0
78.0605 9.0
78.3539 6.0
78.6473 11.0
78.9407 16.0
79.2341 34.0
79.5275 12.0
79.8209 14.0
80.1143 5.0
80.4077 9.0
80.7011 15.0
80.9944 4.0
81.2878 4.0
81.5812 5.0
81.8746 4.0
82.168 2.0
82.4614 5.0
82.7548 3.0
83.0482 0.0
83.3416 11.0
83.635 4.0
83.9284 10.0
84.2218 11.0
84.5152 5.0
84.8086 5.0
85.102 9.0
85.3954 9.0
85.6888 5.0
85.9821 4.0
86.2755 4.0
86.5689 5.0
86.8623 3.0
87.1557 3.0
87.4491 6.0
87.7425 5.0
88.0359 12.0
88.3293 32.0
88.6227 42.0
88.9161 17.0
89.2095 2.0
89.5029 6.0
89.7963 2.0
89.9919 11.0

File: 2025_06_07_Felodipine_3_60_8min_XRD.xy
3.00043 41946.0
3.19603 33427.0
3.39163 26135.0
3.58722 19872.0
3.78282 15042.0
3.97841 11011.0
4.17401 7808.0
4.3696 5501.0
4.5652 3744.0
4.7608 2645.0
4.95639 2281.0
5.15199 2010.0
5.34758 2003.0
5.54318 1475.0
5.73878 1160.0
5.93437 997.0
6.12997 917.0
6.32556 893.0
6.52116 782.0
6.71676 698.0
6.91235 639.0
7.10795 536.0
7.30354 512.0
7.49914 477.0
7.69474 473.0
7.89033 411.0
8.08593 428.0
8.28152 409.0
8.47712 409.0
8.67271 410.0
8.86831 411.0
9.06391 407.0
9.2595 430.0
9.4551 452.0
9.65069 541.0
9.84629 994.0
10.0419 3000.0
10.2375 7110.0
10.4331 2502.0
10.6287 1453.0
10.8243 2105.0
11.0199 1172.0
11.2155 666.0
11.4111 513.0
11.6067 485.0
11.8022 449.0
11.9978 430.0
12.1934 400.0
12.389 412.0
12.5846 451.0
12.7802 442.0
12.9758 648.0
13.1714 1159.0
13.367 630.0
13.5626 467.0
13.7582 409.0
13.9538 372.0
14.1494 460.0
14.345 790.0
14.5406 1156.0
14.7362 632.0
14.9318 575.0
15.1274 457.0
15.323 383.0
15.5186 381.0
15.7142 439.0
15.9098 595.0
16.1054 1823.0
16.301 3243.0
16.4966 3301.0
16.6921 1694.0
16.8877 634.0
17.0833 451.0
17.2789 411.0
17.4745 492.0
17.6701 752.0
17.8657 498.0
18.0613 424.0
18.2569 373.0
18.4525 382.0
18.6481 343.0
18.8437 403.0
19.0393 393.0
19.2349 443.0
19.4305 867.0
19.6261 657.0
19.8217 446.0
20.0173 460.0
20.2129 660.0
20.4085 2216.0
20.6041 1670.0
20.7997 798.0
20.9953 572.0
21.1909 445.0
21.3864 462.0
21.582 722.0
21.7776 1362.0
21.9732 1386.0
22.1688 790.0
22.3644 595.0
22.56 582.0
22.7556 627.0
22.9512 1349.0
23.1468 5958.0
23.3424 5663.0
23.538 1598.0
23.7336 839.0
23.9292 631.0
24.1248 602.0
24.3204 1537.0
24.516 2939.0
24.7116 975.0
24.9072 677.0
25.1028 937.0
25.2984 2580.0
25.494 1748.0
25.6896 1018.0
25.8852 667.0
26.0808 912.0
26.2763 2549.0
26.4719 3028.0
26.6675 1230.0
26.8631 660.0
27.0587 771.0
27.2543 954.0
27.4499 885.0
27.6455 681.0
27.8411 473.0
28.0367 492.0
28.2323 502.0
28.4279 433.0
28.6235 423.0
28.8191 494.0
29.0147 821.0
29.2103 1091.0
29.4059 1672.0
29.6015 1058.0
29.7971 648.0
29.9927 1101.0
30.1883 1302.0
30.3839 768.0
30.5795 597.0
30.7751 629.0
30.9706 694.0
31.1662 501.0
31.3618 451.0
31.5574 446.0
31.753 632.0
31.9486 1100.0
32.1442 648.0
32.3398 522.0
32.5354 1007.0
32.731 1079.0
32.9266 683.0
33.1222 467.0
33.3178 656.0
33.5134 820.0
33.709 821.0
33.9046 640.0
34.1002 480.0
34.2958 424.0
34.4914 663.0
34.687 759.0
34.8826 514.0
35.0782 396.0
35.2738 401.0
35.4694 389.0
35.665 428.0
35.8605 813.0
36.0561 718.0
36.2517 443.0
36.4473 435.0
36.6429 529.0
36.8385 739.0
37.0341 551.0
37.2297 464.0
37.4253 514.0
37.6209 498.0
37.8165 406.0
38.0121 341.0
38.2077 393.0
38.4033 451.0
38.5989 469.0
38.7945 400.0
38.9901 480.0
39.1857 389.0
39.3813 758.0
39.5769 930.0
39.7725 842.0
39.9681 667.0
40.1637 498.0
40.3593 485.0
40.5548 500.0
40.7504 569.0
40.946 571.0
41.1416 456.0
41.3372 459.0
41.5328 501.0
41.7284 477.0
41.924 512.0
42.1196 465.0
42.3152 408.0
42.5108 419.0
42.7064 509.0
42.902 522.0
43.0976 509.0
43.2932 400.0
43.4888 351.0
43.6844 351.0
43.88 359.0
44.0756 511.0
44.2712 606.0
44.4668 526.0
44.6624 462.0
44.858 419.0
45.0536 457.0
45.2492 386.0
45.4447 392.0
45.6403 486.0
45.8359 475.0
46.0315 418.0
46.2271 398.0
46.4227 350.0
46.6183 319.0
46.8139 362.0
47.0095 391.0
47.2051 476.0
47.4007 620.0
47.5963 652.0
47.7919 518.0
47.9875 457.0
48.1831 367.0
48.3787 304.0
48.5743 331.0
48.7699 373.0
48.9655 312.0
49.1611 375.0
49.3567 351.0
49.5523 360.0
49.7479 438.0
49.9435 541.0
50.139 468.0
50.3346 399.0
50.5302 387.0
50.7258 409.0
50.9214 352.0
51.117 350.0
51.3126 336.0
51.5082 323.0
51.7038 365.0
51.8994 341.0
52.095 304.0
52.2906 291.0
52.4862 343.0
52.6818 322.0
52.8774 364.0
53.073 339.0
53.2686 296.0
53.4642 286.0
53.6598 297.0
53.8554 315.0
54.051 318.0
54.2466 303.0
54.4422 344.0
54.6378 333.0
54.8334 317.0
55.0289 310.0
55.2245 326.0
55.4201 315.0
55.6157 287.0
55.8113 292.0
56.0069 269.0
56.2025 283.0
56.3981 340.0
56.5937 297.0
56.7893 280.0
56.9849 239.0
57.1805 258.0
57.3761 257.0
57.5717 293.0
57.7673 280.0
57.9629 284.0
58.1585 243.0
58.3541 235.0
58.5497 250.0
58.7453 277.0
58.9409 294.0
59.1365 246.0
59.3321 303.0
59.5277 265.0
59.7233 245.0
59.9188 215.0
59.9949 232.0

File: 2025_06_07_Nifedipine_3_60_8min_pXRD.xy
3.00043 43035.0
3.19603 34040.0
3.39163 26269.0
3.58722 20251.0
3.78282 15102.0
3.97841 10931.0
4.17401 7781.0
4.3696 5459.0
4.5652 3593.0
4.7608 2574.0
4.95639 2216.0
5.15199 2055.0
5.34758 2002.0
5.54318 1571.0
5.73878 1175.0
5.93437 1061.0
6.12997 1030.0
6.32556 928.0
6.52116 832.0
6.71676 735.0
6.91235 717.0
7.10795 676.0
7.30354 739.0
7.49914 1102.0
7.69474 2095.0
7.89033 4514.0
8.08593 4610.0
8.28152 776.0
8.47712 619.0
8.67271 626.0
8.86831 620.0
9.06391 594.0
9.2595 590.0
9.4551 623.0
9.65069 632.0
9.84629 720.0
10.0419 1201.0
10.2375 3425.0
10.4331 4801.0
10.6287 802.0
10.8243 647.0
11.0199 727.0
11.2155 1094.0
11.4111 3023.0
11.6067 13462.0
11.8022 7551.0
11.9978 1512.0
12.1934 1125.0
12.389 705.0
12.5846 842.0
12.7802 1359.0
12.9758 1537.0
13.1714 822.0
13.367 904.0
13.5626 575.0
13.7582 604.0
13.9538 593.0
14.1494 651.0
14.345 997.0
14.5406 2765.0
14.7362 1904.0
14.9318 670.0
15.1274 599.0
15.323 582.0
15.5186 726.0
15.7142 1323.0
15.9098 6279.0
16.1054 11536.0
16.301 1088.0
16.4966 813.0
16.6921 822.0
16.8877 2052.0
17.0833 2327.0
17.2789 853.0
17.4745 661.0
17.6701 762.0
17.8657 927.0
18.0613 3416.0
18.2569 13840.0
18.4525 1161.0
18.6481 1248.0
18.8437 4059.0
19.0393 2593.0
19.2349 2436.0
19.4305 10362.0
19.6261 12261.0
19.8217 9366.0
20.0173 2206.0
20.2129 940.0
20.4085 1098.0
20.6041 1537.0
20.7997 1206.0
20.9953 1761.0
21.1909 1444.0
21.3864 1540.0
21.582 1467.0
21.7776 3322.0
21.9732 1826.0
22.1688 2874.0
22.3644 2911.0
22.56 4665.0
22.7556 1552.0
22.9512 981.0
23.1468 802.0
23.3424 953.0
23.538 1490.0
23.7336 1143.0
23.9292 2245.0
24.1248 6063.0
24.3204 7312.0
24.516 15927.0
24.7116 4484.0
24.9072 2565.0
25.1028 1462.0
25.2984 1089.0
25.494 2088.0
25.6896 9207.0
25.8852 3865.0
26.0808 2199.0
26.2763 3411.0
26.4719 2902.0
26.6675 2364.0
26.8631 5908.0
27.0587 2648.0
27.2543 908.0
27.4499 874.0
27.6455 1693.0
27.8411 2755.0
28.0367 1863.0
28.2323 1090.0
28.4279 969.0
28.6235 787.0
28.8191 834.0
29.0147 1263.0
29.2103 879.0
29.4059 1152.0
29.6015 1353.0
29.7971 1099.0
29.9927 892.0
30.1883 1103.0
30.3839 1233.0
30.5795 1598.0
30.7751 1172.0
30.9706 1656.0
31.1662 1352.0
31.3618 1472.0
31.5574 1376.0
31.753 1672.0
31.9486 907.0
32.1442 861.0
32.3398 1184.0
32.5354 1763.0
32.731 1855.0
32.9266 1098.0
33.1222 1171.0
33.3178 860.0
33.5134 625.0
33.709 613.0
33.9046 648.0
34.1002 611.0
34.2958 856.0
34.4914 915.0
34.687 893.0
34.8826 657.0
35.0782 1065.0
35.2738 1400.0
35.4694 1521.0
35.665 3349.0
35.8605 1939.0
36.0561 1199.0
36.2517 959.0
36.4473 705.0
36.6429 791.0
36.8385 766.0
37.0341 1138.0
37.2297 938.0
37.4253 709.0
37.6209 947.0
37.8165 1138.0
38.0121 723.0
38.2077 616.0
38.4033 866.0
38.5989 1133.0
38.7945 786.0
38.9901 768.0
39.1857 993.0
39.3813 1016.0
39.5769 646.0
39.7725 810.0
39.9681 1069.0
40.1637 2031.0
40.3593 734.0
40.5548 820.0
40.7504 890.0
40.946 656.0
41.1416 597.0
41.3372 527.0
41.5328 577.0
41.7284 839.0
41.924 1917.0
42.1196 1463.0
42.3152 1049.0
42.5108 798.0
42.7064 820.0
42.902 927.0
43.0976 813.0
43.2932 811.0
43.4888 754.0
43.6844 605.0
43.88 695.0
44.0756 992.0
44.2712 1037.0
44.4668 1040.0
44.6624 1018.0
44.858 811.0
45.0536 777.0
45.2492 614.0
45.4447 622.0
45.6403 523.0
45.8359 613.0
46.0315 565.0
46.2271 731.0
46.4227 591.0
46.6183 611.0
46.8139 881.0
47.0095 893.0
47.2051 762.0
47.4007 721.0
47.5963 676.0
47.7919 651.0
47.9875 544.0
48.1831 894.0
48.3787 1109.0
48.5743 586.0
48.7699 568.0
48.9655 1022.0
49.1611 974.0
49.3567 600.0
49.5523 546.0
49.7479 569.0
49.9435 696.0
50.139 658.0
50.3346 581.0
50.5302 622.0
50.7258 670.0
50.9214 504.0
51.117 523.0
51.3126 535.0
51.5082 486.0
51.7038 454.0
51.8994 493.0
52.095 469.0
52.2906 435.0
52.4862 499.0
52.6818 553.0
52.8774 747.0
53.073 766.0
53.2686 554.0
53.4642 485.0
53.6598 628.0
53.8554 581.0
54.051 587.0
54.2466 516.0
54.4422 548.0
54.6378 412.0
54.8334 432.0
55.0289 457.0
55.2245 489.0
55.4201 486.0
55.6157 552.0
55.8113 475.0
56.0069 534.0
56.2025 563.0
56.3981 464.0
56.5937 431.0
56.7893 439.0
56.9849 655.0
57.1805 538.0
57.3761 492.0
57.5717 483.0
57.7673 428.0
57.9629 404.0
58.1585 399.0
58.3541 376.0
58.5497 294.0
58.7453 344.0
58.9409 340.0
59.1365 375.0
59.3321 374.0
59.5277 386.0
59.7233 346.0
59.9188 328.0
59.9949 361.0