Folder: Data/Raman/Silica (part 26)

File: 2025_08_22_BB1392_SiO2_8wtPctH2O_Glass_50X_532nm_6mW_Andor750_600gv_1030wn_3accum_30s_Pol_Pos2.csv
23.130,1527.000,1544.000,1543.000
30.879,1471.000,1458.000,1473.000
38.619,1540.000,1525.000,1526.000
46.355,1661.000,1695.000,1699.000
54.083,1660.000,1704.000,1712.000
61.807,1644.000,1653.000,1671.000
69.523,1695.000,1663.000,1686.000
77.233,1640.000,1667.000,1667.000
84.936,1610.000,1580.000,1603.000
92.632,1560.000,1594.000,1565.000
100.323,1548.000,1555.000,1542.000
108.007,1448.000,1447.000,1464.000
115.685,1457.000,1439.000,1448.000
123.359,1406.000,1383.000,1408.000
131.024,1360.000,1327.000,1382.000
138.683,1317.000,1340.000,1335.000
146.335,1294.000,1293.000,1279.000
153.982,1268.000,1253.000,1265.000
161.621,1261.000,1240.000,1224.000
169.256,1227.000,1221.000,1266.000
176.883,1214.000,1212.000,1193.000
184.504,1192.000,1163.000,1165.000
192.122,1170.000,1186.000,1185.000
199.731,1175.000,1187.000,1163.000
207.333,1158.000,1138.000,1158.000
214.929,1118.000,1165.000,1147.000
222.519,1162.000,1157.000,1160.000
230.104,1122.000,1127.000,1123.000
237.681,1149.000,1133.000,1159.000
245.253,1127.000,1121.000,1152.000
252.819,1104.000,1134.000,1140.000
260.380,1159.000,1138.000,1137.000
267.933,1132.000,1145.000,1123.000
275.480,1137.000,1112.000,1130.000
283.021,1146.000,1150.000,1151.000
290.556,1150.000,1157.000,1146.000
298.084,1170.000,1158.000,1169.000
305.607,1185.000,1170.000,1177.000
313.123,1190.000,1189.000,1199.000
320.635,1182.000,1175.000,1202.000
328.139,1189.000,1194.000,1152.000
335.638,1225.000,1207.000,1198.000
343.130,1215.000,1216.000,1221.000
350.616,1257.000,1217.000,1236.000
358.095,1254.000,1253.000,1269.000
365.569,1286.000,1224.000,1248.000
373.037,1292.000,1299.000,1277.000
380.498,1295.000,1329.000,1303.000
387.956,1305.000,1286.000,1311.000
395.405,1337.000,1315.000,1327.000
402.849,1399.000,1368.000,1365.000
410.287,1337.000,1337.000,1326.000
417.719,1380.000,1345.000,1343.000
425.144,1372.000,1373.000,1356.000
432.563,1366.000,1401.000,1411.000
439.977,1407.000,1415.000,1407.000
447.386,1478.000,1415.000,1454.000
454.788,1442.000,1444.000,1462.000
462.183,1508.000,1502.000,1517.000
469.574,1588.000,1550.000,1532.000
476.957,1536.000,1532.000,1568.000
484.335,1564.000,1614.000,1603.000
491.706,1566.000,1551.000,1560.000
499.072,1495.000,1479.000,1469.000
506.432,1309.000,1347.000,1298.000
513.788,1190.000,1162.000,1166.000
521.136,1098.000,1066.000,1080.000
528.479,1010.000,1025.000,1017.000
535.815,961.000,968.000,976.000
543.145,914.000,929.000,937.000
550.469,893.000,924.000,919.000
557.788,888.000,890.000,901.000
565.100,868.000,863.000,859.000
572.408,873.000,847.000,859.000
579.711,833.000,850.000,843.000
587.006,831.000,813.000,827.000
594.295,809.000,825.000,805.000
601.579,793.000,795.000,804.000
608.856,792.000,789.000,799.000
616.129,778.000,762.000,797.000
623.394,778.000,767.000,778.000
630.655,762.000,767.000,759.000
637.911,767.000,770.000,769.000
645.160,752.000,748.000,756.000
652.403,748.000,752.000,759.000
659.640,757.000,752.000,744.000
666.872,740.000,762.000,751.000
674.097,748.000,748.000,760.000
681.317,747.000,746.000,751.000
688.531,744.000,750.000,738.000
695.739,737.000,746.000,749.000
702.944,735.000,744.000,745.000
710.141,735.000,735.000,735.000
717.332,753.000,740.000,748.000
724.517,744.000,741.000,738.000
731.697,744.000,737.000,732.000
738.871,745.000,755.000,743.000
746.039,736.000,733.000,737.000
753.202,742.000,723.000,739.000
760.360,743.000,746.000,752.000
767.512,763.000,748.000,752.000
774.657,785.000,773.000,787.000
781.797,806.000,816.000,808.000
788.932,816.000,821.000,823.000
796.060,830.000,815.000,834.000
803.184,826.000,823.000,816.000
810.301,817.000,817.000,820.000
817.413,804.000,803.000,802.000
824.520,796.000,804.000,788.000
831.622,775.000,775.000,773.000
838.716,768.000,746.000,773.000
845.806,736.000,743.000,732.000
852.890,725.000,728.000,726.000
859.968,723.000,710.000,724.000
867.040,705.000,712.000,717.000
874.106,715.000,713.000,717.000
881.168,721.000,730.000,723.000
888.226,729.000,726.000,728.000
895.276,748.000,720.000,724.000
902.321,728.000,749.000,751.000
909.360,747.000,759.000,745.000
916.393,762.000,746.000,761.000
923.422,763.000,771.000,755.000
930.444,774.000,765.000,771.000
937.461,787.000,778.000,789.000
944.475,808.000,817.000,819.000
951.481,833.000,820.000,823.000
958.482,866.000,855.000,853.000
965.476,873.000,861.000,883.000
972.466,879.000,859.000,877.000
979.451,868.000,873.000,856.000
986.428,842.000,816.000,826.000
993.402,796.000,792.000,803.000
1000.369,782.000,777.000,766.000
1007.333,752.000,745.000,762.000
1014.290,730.000,747.000,726.000
1021.241,742.000,741.000,740.000
1028.188,721.000,722.000,742.000
1035.128,726.000,727.000,725.000
1042.063,730.000,725.000,731.000
1048.994,712.000,736.000,726.000
1055.917,731.000,723.000,737.000
1062.838,720.000,731.000,723.000
1069.752,723.000,727.000,731.000
1076.660,716.000,711.000,726.000
1083.562,711.000,707.000,710.000
1090.460,708.000,690.000,703.000
1097.351,687.000,689.000,683.000
1104.238,678.000,677.000,680.000
1111.120,685.000,689.000,686.000
1117.995,706.000,692.000,690.000
1124.867,685.000,683.000,684.000
1131.733,693.000,691.000,689.000
1138.593,694.000,698.000,683.000
1145.447,695.000,686.000,702.000
1152.297,692.000,692.000,689.000
1159.141,691.000,690.000,696.000
1165.979,697.000,684.000,709.000
1172.813,703.000,699.000,702.000
1179.641,709.000,707.000,698.000
1186.465,696.000,700.000,703.000
1193.282,702.000,698.000,701.000
1200.095,710.000,687.000,705.000
1206.902,690.000,696.000,690.000
1213.703,697.000,696.000,692.000
1220.499,701.000,687.000,688.000
1227.291,687.000,691.000,689.000
1234.076,684.000,681.000,686.000
1240.858,669.000,680.000,670.000
1247.634,674.000,678.000,680.000
1254.405,674.000,678.000,676.000
1261.170,663.000,664.000,668.000
1267.929,672.000,667.000,670.000
1274.683,681.000,669.000,673.000
1281.433,673.000,668.000,667.000
1288.177,662.000,667.000,673.000
1294.916,663.000,667.000,661.000
1301.652,661.000,671.000,654.000
1308.380,659.000,661.000,659.000
1315.104,667.000,662.000,662.000
1321.822,664.000,665.000,663.000
1328.535,665.000,668.000,673.000
1335.243,657.000,655.000,665.000
1341.946,658.000,660.000,661.000
1348.643,675.000,659.000,665.000
1355.337,671.000,669.000,669.000
1362.025,659.000,659.000,668.000
1368.707,669.000,666.000,663.000
1375.384,678.000,677.000,689.000
1382.057,677.000,664.000,670.000
1388.723,660.000,665.000,663.000
1395.385,660.000,671.000,664.000
1402.042,664.000,671.000,659.000
1408.692,659.000,661.000,665.000
1415.341,668.000,672.000,665.000
1421.982,661.000,664.000,662.000
1428.619,669.000,663.000,675.000
1435.250,672.000,664.000,669.000
1441.877,665.000,661.000,658.000
1448.497,657.000,667.000,664.000
1455.114,663.000,659.000,665.000
1461.725,666.000,662.000,657.000
1468.331,668.000,663.000,670.000
1474.934,660.000,655.000,667.000
1481.530,664.000,662.000,671.000
1488.120,667.000,661.000,674.000
1494.707,660.000,672.000,661.000
1501.287,663.000,663.000,663.000
1507.863,664.000,666.000,669.000
1514.435,673.000,668.000,661.000
1521.001,667.000,673.000,663.000
1527.561,675.000,669.000,670.000
1534.118,667.000,667.000,664.000
1540.670,664.000,671.000,674.000
1547.216,671.000,670.000,674.000
1553.756,668.000,669.000,666.000
1560.293,663.000,683.000,668.000
1566.824,671.000,685.000,681.000
1573.350,670.000,681.000,674.000
1579.872,677.000,675.000,666.000
1586.390,674.000,677.000,681.000
1592.901,683.000,678.000,673.000
1599.408,679.000,681.000,676.000
1605.909,683.000,680.000,676.000
1612.405,683.000,673.000,672.000
1618.898,689.000,685.000,678.000
1625.384,681.000,680.000,683.000
1631.866,675.000,672.000,684.000
1638.345,670.000,675.000,683.000
1644.816,686.000,672.000,679.000
1651.285,675.000,677.000,671.000
1657.747,676.000,673.000,675.000
1664.204,670.000,666.000,666.000
1670.656,671.000,675.000,680.000
1677.104,668.000,669.000,679.000
1683.548,682.000,672.000,672.000
1689.986,666.000,678.000,674.000
1696.420,674.000,671.000,665.000
1702.848,670.000,663.000,669.000
1709.272,672.000,666.000,666.000
1715.691,677.000,665.000,669.000
1722.105,677.000,661.000,671.000
1728.514,672.000,667.000,666.000
1734.918,671.000,666.000,675.000
1741.318,668.000,672.000,662.000
1747.712,671.000,675.000,671.000
1754.104,667.000,673.000,668.000
1760.489,671.000,676.000,674.000
1766.870,681.000,670.000,676.000
1773.245,674.000,674.000,679.000
1779.616,675.000,674.000,681.000
1785.982,676.000,680.000,667.000
1792.343,687.000,689.000,676.000
1798.700,680.000,670.000,676.000
1805.052,680.000,681.000,675.000
1811.400,693.000,693.000,690.000
1816.157,686.000,689.000,693.000

File: 2025_08_22_BB1392_SiO2_8wtPctH2O_Glass_50X_532nm_6mW_Andor750_600gv_1030wn_3accum_30s_Unpol_Pos2.csv
23.130,1637.000,1607.000,1614.000
30.879,1501.000,1492.000,1479.000
38.619,1567.000,1595.000,1575.000
46.355,1707.000,1709.000,1705.000
54.083,1740.000,1743.000,1725.000
61.807,1720.000,1724.000,1704.000
69.523,1757.000,1759.000,1766.000
77.233,1649.000,1712.000,1675.000
84.936,1673.000,1616.000,1639.000
92.632,1598.000,1629.000,1589.000
100.323,1560.000,1576.000,1547.000
108.007,1526.000,1532.000,1470.000
115.685,1446.000,1494.000,1463.000
123.359,1464.000,1456.000,1433.000
131.024,1412.000,1359.000,1379.000
138.683,1348.000,1363.000,1387.000
146.335,1325.000,1334.000,1341.000
153.982,1290.000,1280.000,1287.000
161.621,1275.000,1268.000,1273.000
169.256,1268.000,1281.000,1228.000
176.883,1216.000,1256.000,1216.000
184.504,1216.000,1196.000,1207.000
192.122,1184.000,1192.000,1213.000
199.731,1180.000,1169.000,1199.000
207.333,1188.000,1183.000,1167.000
214.929,1178.000,1159.000,1192.000
222.519,1130.000,1187.000,1165.000
230.104,1149.000,1151.000,1153.000
237.681,1153.000,1177.000,1181.000
245.253,1156.000,1188.000,1158.000
252.819,1156.000,1141.000,1144.000
260.380,1170.000,1183.000,1155.000
267.933,1167.000,1180.000,1169.000
275.480,1142.000,1153.000,1181.000
283.021,1174.000,1155.000,1154.000
290.556,1164.000,1154.000,1179.000
298.084,1163.000,1188.000,1176.000
305.607,1190.000,1198.000,1191.000
313.123,1193.000,1195.000,1222.000
320.635,1224.000,1206.000,1215.000
328.139,1218.000,1226.000,1188.000
335.638,1248.000,1234.000,1254.000
343.130,1238.000,1250.000,1243.000
350.616,1248.000,1250.000,1231.000
358.095,1309.000,1277.000,1305.000
365.569,1309.000,1290.000,1295.000
373.037,1284.000,1315.000,1326.000
380.498,1340.000,1322.000,1330.000
387.956,1348.000,1347.000,1347.000
395.405,1339.000,1370.000,1341.000
402.849,2001.000,1389.000,1330.000
410.287,1373.000,1384.000,1394.000
417.719,1383.000,1430.000,1421.000
425.144,1399.000,1448.000,1430.000
432.563,1434.000,1431.000,1420.000
439.977,1476.000,1494.000,1484.000
447.386,1503.000,1550.000,1524.000
454.788,1533.000,1549.000,1512.000
462.183,1559.000,1565.000,1578.000
469.574,1603.000,1646.000,1575.000
476.957,1618.000,1646.000,1646.000
484.335,1687.000,1666.000,1697.000
491.706,1668.000,1633.000,1654.000
499.072,1526.000,1533.000,1539.000
506.432,1391.000,1362.000,1367.000
513.788,1282.000,1259.000,1221.000
521.136,1160.000,1140.000,1157.000
528.479,1060.000,1072.000,1064.000
535.815,1022.000,1042.000,996.000
543.145,970.000,967.000,954.000
550.469,934.000,929.000,933.000
557.788,915.000,926.000,927.000
565.100,894.000,893.000,895.000
572.408,883.000,895.000,859.000
579.711,859.000,870.000,861.000
587.006,849.000,845.000,840.000
594.295,833.000,839.000,837.000
601.579,838.000,812.000,823.000
608.856,803.000,805.000,815.000
616.129,807.000,801.000,798.000
623.394,786.000,794.000,796.000
630.655,778.000,779.000,779.000
637.911,768.000,777.000,774.000
645.160,759.000,761.000,774.000
652.403,768.000,773.000,777.000
659.640,747.000,767.000,761.000
666.872,763.000,771.000,758.000
674.097,758.000,744.000,759.000
681.317,751.000,759.000,749.000
688.531,750.000,750.000,738.000
695.739,739.000,758.000,762.000
702.944,744.000,763.000,747.000
710.141,749.000,751.000,747.000
717.332,733.000,748.000,736.000
724.517,738.000,742.000,740.000
731.697,753.000,743.000,740.000
738.871,748.000,753.000,749.000
746.039,742.000,739.000,735.000
753.202,744.000,750.000,748.000
760.360,739.000,753.000,742.000
767.512,749.000,757.000,759.000
774.657,785.000,800.000,781.000
781.797,833.000,809.000,807.000
788.932,842.000,836.000,832.000
796.060,836.000,846.000,855.000
803.184,831.000,821.000,813.000
810.301,827.000,822.000,829.000
817.413,820.000,811.000,811.000
824.520,794.000,799.000,797.000
831.622,789.000,802.000,800.000
838.716,763.000,767.000,777.000
845.806,742.000,748.000,743.000
852.890,736.000,732.000,730.000
859.968,726.000,736.000,724.000
867.040,744.000,736.000,725.000
874.106,730.000,736.000,739.000
881.168,749.000,734.000,725.000
888.226,736.000,744.000,746.000
895.276,747.000,751.000,741.000
902.321,753.000,755.000,741.000
909.360,764.000,759.000,758.000
916.393,767.000,759.000,769.000
923.422,772.000,770.000,782.000
930.444,790.000,781.000,796.000
937.461,813.000,803.000,811.000
944.475,835.000,819.000,814.000
951.481,861.000,839.000,831.000
958.482,874.000,867.000,877.000
965.476,891.000,894.000,903.000
972.466,905.000,892.000,877.000
979.451,870.000,872.000,869.000
986.428,860.000,845.000,841.000
993.402,806.000,813.000,795.000
1000.369,775.000,779.000,770.000
1007.333,750.000,757.000,767.000
1014.290,747.000,745.000,755.000
1021.241,745.000,742.000,729.000
1028.188,730.000,735.000,734.000
1035.128,735.000,731.000,730.000
1042.063,729.000,740.000,731.000
1048.994,738.000,736.000,740.000
1055.917,729.000,731.000,740.000
1062.838,729.000,737.000,742.000
1069.752,731.000,727.000,728.000
1076.660,705.000,717.000,728.000
1083.562,723.000,709.000,712.000
1090.460,706.000,708.000,706.000
1097.351,704.000,686.000,718.000
1104.238,694.000,694.000,691.000
1111.120,681.000,692.000,686.000
1117.995,682.000,688.000,699.000
1124.867,693.000,696.000,697.000
1131.733,691.000,689.000,699.000
1138.593,697.000,690.000,699.000
1145.447,690.000,701.000,693.000
1152.297,693.000,708.000,697.000
1159.141,706.000,693.000,696.000
1165.979,704.000,707.000,707.000
1172.813,711.000,701.000,714.000
1179.641,702.000,700.000,703.000
1186.465,709.000,714.000,690.000
1193.282,708.000,704.000,693.000
1200.095,702.000,705.000,701.000
1206.902,704.000,703.000,706.000
1213.703,702.000,703.000,701.000
1220.499,696.000,686.000,699.000
1227.291,693.000,691.000,693.000
1234.076,682.000,695.000,679.000
1240.858,685.000,684.000,681.000
1247.634,688.000,678.000,686.000
1254.405,675.000,674.000,685.000
1261.170,665.000,669.000,676.000
1267.929,686.000,678.000,674.000
1274.683,670.000,670.000,682.000
1281.433,676.000,670.000,672.000
1288.177,674.000,669.000,665.000
1294.916,669.000,672.000,666.000
1301.652,669.000,668.000,665.000
1308.380,664.000,669.000,676.000
1315.104,667.000,664.000,657.000
1321.822,663.000,662.000,669.000
1328.535,673.000,673.000,663.000
1335.243,668.000,664.000,670.000
1341.946,668.000,676.000,670.000
1348.643,663.000,663.000,656.000
1355.337,670.000,661.000,662.000
1362.025,668.000,666.000,663.000
1368.707,672.000,659.000,667.000
1375.384,699.000,682.000,690.000
1382.057,670.000,675.000,675.000
1388.723,666.000,662.000,660.000
1395.385,671.000,664.000,670.000
1402.042,672.000,658.000,676.000
1408.692,656.000,667.000,663.000
1415.341,667.000,675.000,676.000
1421.982,673.000,664.000,672.000
1428.619,665.000,665.000,671.000
1435.250,664.000,671.000,666.000
1441.877,663.000,669.000,671.000
1448.497,674.000,667.000,668.000
1455.114,668.000,672.000,666.000
1461.725,661.000,671.000,674.000
1468.331,672.000,667.000,661.000
1474.934,676.000,661.000,673.000
1481.530,667.000,658.000,664.000
1488.120,665.000,673.000,657.000
1494.707,667.000,656.000,660.000
1501.287,666.000,660.000,667.000
1507.863,676.000,675.000,672.000
1514.435,663.000,669.000,675.000
1521.001,666.000,663.000,664.000
1527.561,669.000,671.000,670.000
1534.118,665.000,680.000,671.000
1540.670,669.000,671.000,669.000
1547.216,669.000,666.000,669.000
1553.756,671.000,669.000,671.000
1560.293,677.000,675.000,675.000
1566.824,672.000,678.000,674.000
1573.350,668.000,676.000,681.000
1579.872,671.000,683.000,679.000
1586.390,680.000,674.000,683.000
1592.901,682.000,673.000,680.000
1599.408,683.000,680.000,685.000
1605.909,680.000,678.000,680.000
1612.405,683.000,685.000,686.000
1618.898,686.000,684.000,678.000
1625.384,685.000,694.000,689.000
1631.866,685.000,678.000,680.000
1638.345,672.000,678.000,675.000
1644.816,668.000,674.000,684.000
1651.285,678.000,679.000,668.000
1657.747,682.000,675.000,674.000
1664.204,672.000,676.000,677.000
1670.656,667.000,668.000,672.000
1677.104,666.000,662.000,671.000
1683.548,672.000,675.000,675.000
1689.986,670.000,667.000,663.000
1696.420,665.000,667.000,670.000
1702.848,668.000,663.000,666.000
1709.272,674.000,669.000,669.000
1715.691,671.000,667.000,663.000
1722.105,676.000,671.000,672.000
1728.514,669.000,674.000,663.000
1734.918,674.000,668.000,677.000
1741.318,671.000,678.000,663.000
1747.712,667.000,669.000,673.000
1754.104,674.000,674.000,669.000
1760.489,669.000,677.000,682.000
1766.870,670.000,677.000,676.000
1773.245,665.000,681.000,680.000
1779.616,677.000,678.000,685.000
1785.982,667.000,676.000,675.000
1792.343,675.000,688.000,685.000
1798.700,677.000,676.000,675.000
1805.052,682.000,682.000,685.000
1811.400,676.000,679.000,675.000
1816.157,679.000,711.000,685.000

File: 2025_08_22_BB1392_SiO2_8wtPctH2O_Glass_50X_532nm_6mW_Andor750_600gv_3400wn_3accum_30s_DePol_Pos2.csv
2654.492,667.000,658.000,660.000
2660.180,660.000,672.000,663.000
2665.866,672.000,672.000,660.000
2671.545,668.000,671.000,669.000
2677.221,661.000,661.000,667.000
2682.894,664.000,676.000,669.000
2688.562,665.000,672.000,661.000
2694.227,662.000,667.000,678.000
2699.886,664.000,675.000,665.000
2705.543,659.000,665.000,673.000
2711.196,671.000,676.000,663.000
2716.844,671.000,671.000,665.000
2722.488,666.000,667.000,669.000
2728.129,664.000,670.000,664.000
2733.765,673.000,675.000,673.000
2739.399,669.000,671.000,667.000
2745.027,667.000,668.000,671.000
2750.650,672.000,670.000,670.000
2756.272,666.000,676.000,669.000
2761.889,662.000,677.000,674.000
2767.503,669.000,690.000,670.000
2773.111,666.000,668.000,676.000
2778.716,669.000,671.000,681.000
2784.316,668.000,669.000,674.000
2789.915,677.000,666.000,684.000
2795.507,674.000,668.000,674.000
2801.098,677.000,673.000,676.000
2806.682,661.000,679.000,674.000
2812.264,675.000,673.000,685.000
2817.842,675.000,673.000,678.000
2823.416,675.000,675.000,672.000
2828.986,671.000,671.000,676.000
2834.551,677.000,683.000,682.000
2840.113,686.000,682.000,671.000
2845.672,689.000,674.000,681.000
2851.227,681.000,678.000,683.000
2856.776,682.000,689.000,679.000
2862.323,684.000,678.000,678.000
2867.867,687.000,680.000,686.000
2873.406,682.000,685.000,681.000
2878.941,682.000,687.000,680.000
2884.471,685.000,685.000,686.000
2889.998,689.000,689.000,686.000
2895.522,698.000,686.000,690.000
2901.043,687.000,698.000,698.000
2906.558,695.000,694.000,693.000
2912.069,693.000,689.000,690.000
2917.578,702.000,693.000,700.000
2923.083,699.000,695.000,699.000
2928.584,699.000,707.000,702.000
2934.081,703.000,710.000,709.000
2939.573,699.000,705.000,705.000
2945.063,698.000,702.000,702.000
2950.548,698.000,699.000,698.000
2956.030,703.000,714.000,706.000
2961.509,710.000,707.000,700.000
2966.981,707.000,702.000,694.000
2972.452,703.000,711.000,708.000
2977.919,707.000,699.000,709.000
2983.382,702.000,709.000,710.000
2988.840,714.000,711.000,713.000
2994.295,702.000,712.000,712.000
2999.746,703.000,701.000,715.000
3005.195,705.000,703.000,711.000
3010.638,713.000,708.000,702.000
3016.077,710.000,714.000,726.000
3021.514,716.000,706.000,713.000
3026.947,712.000,722.000,716.000
3032.377,734.000,717.000,730.000
3037.801,722.000,716.000,736.000
3043.222,731.000,728.000,723.000
3048.640,718.000,731.000,723.000
3054.054,709.000,726.000,718.000
3059.465,732.000,735.000,719.000
3064.872,723.000,735.000,736.000
3070.273,716.000,733.000,727.000
3075.673,738.000,726.000,726.000
3081.068,728.000,727.000,719.000
3086.461,729.000,727.000,739.000
3091.847,731.000,739.000,744.000
3097.231,731.000,729.000,730.000
3102.613,739.000,736.000,731.000
3107.991,746.000,733.000,741.000
3113.363,753.000,747.000,742.000
3118.732,754.000,739.000,736.000
3124.098,747.000,746.000,752.000
3129.461,753.000,757.000,747.000
3134.820,761.000,759.000,748.000
3140.175,750.000,744.000,752.000
3145.525,753.000,770.000,755.000
3150.873,771.000,745.000,762.000
3156.217,761.000,759.000,758.000
3161.558,758.000,774.000,767.000
3166.894,761.000,752.000,760.000
3172.226,764.000,776.000,757.000
3177.556,774.000,761.000,767.000
3182.882,775.000,770.000,787.000
3188.204,775.000,773.000,774.000
3193.522,770.000,774.000,770.000
3198.836,782.000,781.000,766.000
3204.148,772.000,779.000,777.000
3209.456,774.000,788.000,790.000
3214.761,784.000,795.000,779.000
3220.060,773.000,802.000,802.000
3225.357,801.000,782.000,794.000
3230.650,787.000,791.000,785.000
3235.940,788.000,793.000,785.000
3241.227,783.000,795.000,793.000
3246.507,790.000,807.000,807.000
3251.787,795.000,799.000,790.000
3257.063,795.000,797.000,800.000
3262.334,799.000,782.000,794.000
3267.603,800.000,821.000,794.000
3272.866,792.000,806.000,801.000
3278.127,802.000,786.000,816.000
3283.385,788.000,795.000,796.000
3288.639,798.000,793.000,807.000
3293.890,812.000,813.000,819.000
3299.135,822.000,822.000,801.000
3304.379,808.000,810.000,829.000
3309.618,809.000,813.000,823.000
3314.855,807.000,819.000,819.000
3320.087,825.000,810.000,842.000
3325.316,826.000,833.000,825.000
3330.542,812.000,824.000,819.000
3335.763,826.000,827.000,825.000
3340.982,832.000,829.000,838.000
3346.196,824.000,830.000,818.000
3351.408,844.000,832.000,831.000
3356.615,825.000,828.000,843.000
3361.820,823.000,832.000,825.000
3367.022,851.000,848.000,834.000
3372.217,838.000,837.000,844.000
3377.412,854.000,832.000,844.000
3382.603,837.000,835.000,844.000
3387.789,848.000,842.000,847.000
3392.973,858.000,855.000,849.000
3398.152,854.000,869.000,864.000
3403.328,855.000,870.000,872.000
3408.502,847.000,853.000,854.000
3413.672,876.000,849.000,857.000
3418.838,866.000,876.000,865.000
3423.999,863.000,866.000,856.000
3429.158,859.000,860.000,849.000
3434.314,870.000,872.000,876.000
3439.467,847.000,863.000,875.000
3444.614,836.000,865.000,865.000
3449.759,860.000,883.000,868.000
3454.901,878.000,876.000,878.000
3460.040,883.000,867.000,868.000
3465.175,853.000,865.000,875.000
3470.305,861.000,872.000,881.000
3475.433,878.000,877.000,884.000
3480.559,847.000,873.000,878.000
3485.680,893.000,854.000,872.000
3490.798,868.000,856.000,881.000
3495.911,875.000,854.000,886.000
3501.023,899.000,890.000,882.000
3506.130,871.000,858.000,897.000
3511.235,866.000,859.000,890.000
3516.336,889.000,890.000,865.000
3521.431,880.000,871.000,885.000
3526.526,876.000,903.000,879.000
3531.617,875.000,873.000,876.000
3536.704,895.000,884.000,881.000
3541.787,883.000,881.000,896.000
3546.867,901.000,897.000,878.000
3551.944,887.000,881.000,897.000
3557.017,895.000,892.000,891.000
3562.088,898.000,903.000,877.000
3567.154,912.000,917.000,901.000
3572.218,933.000,938.000,916.000
3577.278,931.000,926.000,942.000
3582.335,933.000,946.000,915.000
3587.389,958.000,958.000,932.000
3592.437,946.000,936.000,952.000
3597.484,992.000,960.000,977.000
3602.528,956.000,965.000,966.000
3607.568,939.000,961.000,929.000
3612.604,920.000,919.000,932.000
3617.637,888.000,894.000,888.000
3622.667,919.000,895.000,877.000
3627.694,883.000,903.000,877.000
3632.718,902.000,880.000,890.000
3637.736,876.000,870.000,881.000
3642.753,890.000,891.000,881.000
3647.767,874.000,893.000,888.000
3652.777,889.000,908.000,878.000
3657.784,886.000,853.000,895.000
3662.786,885.000,869.000,877.000
3667.786,848.000,858.000,862.000
3672.783,833.000,853.000,840.000
3677.777,840.000,826.000,820.000
3682.767,797.000,801.000,791.000
3687.753,770.000,771.000,778.000
3692.737,743.000,755.000,758.000
3697.717,733.000,728.000,736.000
3702.695,718.000,717.000,719.000
3707.668,702.000,713.000,711.000
3712.638,700.000,701.000,701.000
3717.605,699.000,700.000,682.000
3722.569,692.000,758.000,689.000
3727.531,695.000,696.000,691.000
3732.487,679.000,680.000,685.000
3737.441,683.000,696.000,686.000
3742.392,693.000,690.000,688.000
3747.340,673.000,688.000,689.000
3752.284,678.000,689.000,697.000
3757.226,668.000,675.000,682.000
3762.162,669.000,677.000,684.000
3767.097,682.000,675.000,682.000
3772.029,677.000,678.000,675.000
3776.957,671.000,676.000,680.000
3781.882,673.000,677.000,677.000
3786.803,664.000,679.000,670.000
3791.722,675.000,678.000,681.000
3796.637,678.000,659.000,674.000
3801.550,681.000,669.000,673.000
3806.457,680.000,667.000,682.000
3811.363,669.000,672.000,673.000
3816.266,667.000,664.000,671.000
3821.165,671.000,678.000,670.000
3826.061,676.000,676.000,683.000
3830.953,677.000,671.000,679.000
3835.842,679.000,674.000,684.000
3840.730,685.000,669.000,684.000
3845.613,680.000,674.000,668.000
3850.493,676.000,670.000,668.000
3855.369,680.000,681.000,672.000
3860.243,674.000,667.000,665.000
3865.113,680.000,675.000,674.000
3869.981,672.000,676.000,672.000
3874.844,672.000,670.000,674.000
3879.705,666.000,677.000,679.000
3884.563,679.000,668.000,683.000
3889.418,670.000,673.000,679.000
3894.269,669.000,674.000,667.000
3899.117,685.000,674.000,680.000
3903.962,677.000,665.000,672.000
3908.805,682.000,676.000,682.000
3913.643,671.000,676.000,672.000
3918.479,681.000,680.000,683.000
3923.311,672.000,687.000,673.000
3928.140,667.000,677.000,682.000
3932.967,687.000,669.000,682.000
3937.791,673.000,674.000,684.000
3942.610,689.000,683.000,671.000
3947.427,682.000,687.000,684.000
3952.240,688.000,691.000,677.000
3957.052,683.000,678.000,674.000
3961.859,686.000,685.000,683.000
3966.662,680.000,683.000,681.000
3971.464,692.000,690.000,681.000
3976.263,676.000,693.000,682.000
3981.058,683.000,685.000,696.000
3985.849,691.000,693.000,685.000
3989.441,688.000,694.000,699.000