Folder: Data/Raman/Silica (part 89)

File: 2025_09_09_8pct_Hydrated_SiO2_Glass_50X_532nm_74mW_Andor750_600gv_1030wn_6accum_30s_DePol_Loc1.csv
23.130,5053.000,5063.000,5100.000,5123.000,5109.000,4987.000
36.684,5043.000,5104.000,5161.000,5113.000,5125.000,5142.000
50.221,5582.000,5638.000,5697.000,5716.000,5648.000,5694.000
63.736,5637.000,5548.000,5608.000,5642.000,5616.000,5664.000
77.233,5453.000,5368.000,5482.000,5420.000,5476.000,5448.000
90.708,4980.000,5024.000,5106.000,5023.000,5092.000,5043.000
104.167,4589.000,4591.000,4657.000,4640.000,4646.000,4589.000
117.603,4249.000,4277.000,4268.000,4264.000,4310.000,4254.000
131.024,3924.000,3990.000,3929.000,4022.000,3967.000,3928.000
144.422,3601.000,3575.000,3559.000,3650.000,3578.000,3605.000
157.804,3300.000,3287.000,3281.000,3331.000,3259.000,3296.000
171.164,2968.000,3014.000,2975.000,2982.000,2992.000,3032.000
184.504,2775.000,2794.000,2810.000,2769.000,2791.000,2790.000
197.829,2657.000,2685.000,2660.000,2641.000,2632.000,2689.000
211.132,2903.000,2598.000,2510.000,2597.000,2573.000,2562.000
224.417,2463.000,2466.000,2462.000,2492.000,2462.000,2484.000
237.681,2364.000,2365.000,2394.000,2396.000,2347.000,2358.000
250.929,2271.000,2255.000,2240.000,2283.000,2303.000,2271.000
264.156,2174.000,2212.000,2233.000,2208.000,2192.000,2231.000
277.367,2153.000,2156.000,2155.000,2185.000,2137.000,2139.000
290.556,2135.000,2066.000,2072.000,2063.000,2098.000,2087.000
303.728,2027.000,2083.000,2079.000,2024.000,2025.000,2002.000
316.880,1984.000,1990.000,1971.000,1986.000,1927.000,1985.000
330.014,1893.000,1921.000,1903.000,1878.000,1935.000,1903.000
343.130,1889.000,1839.000,1848.000,1878.000,1861.000,1851.000
356.226,1821.000,1858.000,1816.000,1830.000,1843.000,1874.000
369.305,1789.000,1802.000,1805.000,1803.000,1825.000,1802.000
382.363,1759.000,1750.000,1772.000,1740.000,1760.000,1741.000
395.405,1723.000,1735.000,1698.000,1718.000,1689.000,1693.000
408.428,1679.000,1631.000,1671.000,1675.000,1654.000,1643.000
421.432,1590.000,1604.000,1657.000,1674.000,1621.000,1613.000
434.417,1618.000,1566.000,1604.000,1614.000,1597.000,1587.000
447.386,1521.000,1550.000,1575.000,1539.000,1579.000,1567.000
460.335,1550.000,1521.000,1524.000,1519.000,1515.000,1509.000
473.265,1495.000,1471.000,1473.000,1459.000,1456.000,1475.000
486.179,1390.000,1407.000,1381.000,1398.000,1392.000,1381.000
499.072,1279.000,1285.000,1303.000,1293.000,1279.000,1283.000
511.950,1199.000,1216.000,1218.000,1233.000,1183.000,1175.000
524.807,1158.000,1147.000,1143.000,1127.000,1125.000,1147.000
537.649,1113.000,1101.000,1119.000,1105.000,1130.000,1100.000
550.469,1074.000,1089.000,1061.000,1095.000,1097.000,1058.000
563.275,1051.000,1059.000,1070.000,1059.000,1065.000,1039.000
576.060,1057.000,1065.000,1041.000,1032.000,1040.000,1059.000
588.829,1030.000,1027.000,1014.000,1033.000,1022.000,1039.000
601.579,1041.000,1038.000,1019.000,1019.000,1006.000,1007.000
614.310,1011.000,1016.000,1023.000,1023.000,987.000,1006.000
627.026,990.000,1007.000,1019.000,999.000,1004.000,1002.000
639.723,993.000,1005.000,1010.000,1001.000,1004.000,997.000
652.403,996.000,1003.000,988.000,997.000,994.000,1003.000
665.064,996.000,1002.000,996.000,999.000,978.000,977.000
677.709,995.000,989.000,1010.000,995.000,1002.000,988.000
690.334,988.000,999.000,976.000,1013.000,996.000,998.000
702.944,992.000,1011.000,997.000,1016.000,995.000,982.000
715.535,1018.000,1044.000,1024.000,1003.000,1014.000,1032.000
728.106,1028.000,1037.000,1003.000,1025.000,1033.000,1027.000
740.664,1049.000,1049.000,1067.000,1049.000,1039.000,1048.000
753.202,1084.000,1100.000,1073.000,1095.000,1095.000,1080.000
765.725,1169.000,1169.000,1159.000,1171.000,1150.000,1188.000
778.228,1431.000,1428.000,1438.000,1412.000,1396.000,1405.000
790.716,1475.000,1501.000,1517.000,1479.000,1505.000,1471.000
803.184,1466.000,1441.000,1434.000,1442.000,1471.000,1423.000
815.637,1374.000,1362.000,1326.000,1384.000,1367.000,1387.000
828.071,1271.000,1264.000,1260.000,1259.000,1267.000,1232.000
840.489,1102.000,1134.000,1139.000,1104.000,1119.000,1126.000
852.890,1045.000,2254.000,1037.000,1056.000,1040.000,1066.000
865.272,1019.000,1019.000,1012.000,1018.000,1033.000,1021.000
877.640,1054.000,1030.000,1018.000,1027.000,1024.000,1025.000
889.988,1045.000,1018.000,1006.000,1020.000,1028.000,1009.000
902.321,1056.000,1032.000,1062.000,1035.000,1055.000,1040.000
914.635,1083.000,1078.000,1090.000,1086.000,1066.000,1056.000
926.934,1099.000,1101.000,1108.000,1126.000,1111.000,1095.000
939.215,1175.000,1174.000,1176.000,1179.000,1163.000,1147.000
951.481,1197.000,1233.000,1235.000,1183.000,1224.000,1212.000
963.727,1265.000,1256.000,1245.000,1243.000,1286.000,1251.000
975.959,1256.000,1256.000,1246.000,1257.000,1279.000,1262.000
988.172,1211.000,1197.000,1200.000,1217.000,1204.000,1197.000
1000.369,1167.000,1172.000,1147.000,1160.000,1163.000,1174.000
1012.551,1164.000,1139.000,1147.000,1167.000,1146.000,1138.000
1024.714,1192.000,1185.000,1197.000,1184.000,1162.000,1184.000
1036.863,1231.000,1219.000,1253.000,1222.000,1228.000,1203.000
1048.994,1256.000,1271.000,1273.000,1282.000,1258.000,1267.000
1061.109,1272.000,1257.000,1281.000,1265.000,1245.000,1241.000
1073.206,1199.000,1197.000,1212.000,1211.000,1224.000,1220.000
1085.287,1143.000,1130.000,1135.000,1163.000,1130.000,1152.000
1097.351,1074.000,1060.000,1060.000,1043.000,1059.000,1078.000
1109.401,1058.000,1029.000,1031.000,1052.000,1058.000,1043.000
1121.432,1022.000,1052.000,1054.000,1045.000,1027.000,1073.000
1133.447,1065.000,1067.000,1070.000,1071.000,1040.000,1077.000
1145.447,1089.000,1080.000,1088.000,1086.000,1101.000,1090.000
1157.430,1118.000,1135.000,1102.000,1118.000,1091.000,1089.000
1169.397,1143.000,1102.000,1110.000,1124.000,1099.000,1129.000
1181.347,1117.000,1130.000,1120.000,1134.000,1113.000,1141.000
1193.282,1111.000,1129.000,1111.000,1116.000,1087.000,1104.000
1205.200,1101.000,1093.000,1075.000,1093.000,1080.000,1099.000
1217.103,1082.000,1087.000,1068.000,1062.000,1068.000,1061.000
1228.988,1034.000,1048.000,1025.000,1037.000,1021.000,1028.000
1240.858,985.000,1010.000,1005.000,1032.000,1018.000,983.000
1252.712,984.000,971.000,961.000,991.000,962.000,956.000
1264.549,935.000,972.000,963.000,956.000,947.000,973.000
1276.372,943.000,944.000,949.000,955.000,966.000,930.000
1288.177,934.000,931.000,920.000,926.000,934.000,931.000
1299.969,931.000,957.000,944.000,931.000,947.000,933.000
1311.742,953.000,930.000,940.000,929.000,929.000,924.000
1323.501,919.000,941.000,952.000,929.000,952.000,945.000
1335.243,930.000,927.000,923.000,927.000,946.000,945.000
1346.970,930.000,935.000,923.000,920.000,931.000,928.000
1358.680,934.000,921.000,929.000,927.000,938.000,925.000
1370.376,941.000,959.000,944.000,946.000,918.000,947.000
1382.057,922.000,946.000,932.000,934.000,941.000,943.000
1393.719,942.000,944.000,922.000,934.000,923.000,939.000
1405.369,925.000,933.000,937.000,930.000,948.000,923.000
1417.001,942.000,925.000,926.000,945.000,922.000,930.000
1428.619,924.000,932.000,925.000,912.000,923.000,922.000
1440.220,946.000,939.000,931.000,929.000,935.000,945.000
1451.807,921.000,938.000,927.000,938.000,958.000,935.000
1463.377,934.000,957.000,952.000,925.000,936.000,951.000
1474.934,968.000,955.000,961.000,949.000,943.000,936.000
1486.473,961.000,946.000,959.000,938.000,955.000,949.000
1497.997,960.000,951.000,953.000,935.000,977.000,939.000
1509.507,936.000,960.000,945.000,973.000,950.000,941.000
1521.001,962.000,967.000,961.000,936.000,962.000,955.000
1532.480,952.000,945.000,949.000,955.000,931.000,949.000
1543.943,952.000,959.000,971.000,985.000,958.000,967.000
1555.392,966.000,955.000,981.000,945.000,976.000,978.000
1566.824,971.000,963.000,966.000,984.000,979.000,976.000
1578.243,986.000,980.000,982.000,977.000,994.000,974.000
1589.645,1028.000,978.000,1003.000,1004.000,1011.000,1001.000
1601.034,1020.000,1026.000,1024.000,1044.000,1026.000,1019.000
1612.405,1071.000,1032.000,1063.000,1057.000,1047.000,1066.000
1623.763,1072.000,1025.000,1039.000,1019.000,1028.000,1032.000
1635.106,1011.000,1019.000,997.000,1014.000,1035.000,1020.000
1646.432,1001.000,983.000,989.000,1016.000,982.000,1001.000
1657.747,999.000,1007.000,990.000,983.000,964.000,986.000
1669.044,989.000,964.000,973.000,980.000,979.000,975.000
1680.328,961.000,981.000,967.000,979.000,973.000,953.000
1691.594,968.000,984.000,960.000,968.000,967.000,973.000
1702.848,954.000,975.000,987.000,957.000,949.000,953.000
1714.086,965.000,946.000,935.000,976.000,989.000,975.000
1725.311,970.000,949.000,967.000,974.000,980.000,973.000
1736.519,972.000,960.000,984.000,952.000,957.000,951.000
1747.712,968.000,976.000,980.000,966.000,934.000,959.000
1758.893,985.000,980.000,984.000,959.000,960.000,956.000
1770.057,972.000,958.000,968.000,974.000,959.000,929.000
1781.209,967.000,976.000,989.000,964.000,967.000,955.000
1792.343,971.000,985.000,981.000,971.000,984.000,979.000
1803.465,972.000,983.000,957.000,989.000,957.000,966.000
1814.571,1000.000,1012.000,995.000,992.000,980.000,1012.000
1816.157,994.000,1002.000,988.000,998.000,994.000,994.000

File: 2025_09_09_8pct_Hydrated_SiO2_Glass_50X_532nm_74mW_Andor750_600gv_1030wn_6accum_30s_Pol_Loc1.csv
23.130,7396.000,7336.000,7379.000,7331.000,7273.000,7370.000
36.684,7910.000,8016.000,7953.000,8047.000,7860.000,7897.000
50.221,9777.000,9828.000,9650.000,9714.000,9748.000,9631.000
63.736,10057.000,10193.000,10271.000,10160.000,10168.000,10122.000
77.233,10127.000,10084.000,10072.000,10037.000,10019.000,9958.000
90.708,9409.000,9507.000,9419.000,9347.000,9463.000,9371.000
104.167,8720.000,8716.000,8701.000,8770.000,8786.000,8695.000
117.603,8241.000,8275.000,8305.000,8225.000,8210.000,8210.000
131.024,7897.000,7834.000,7877.000,7849.000,7708.000,7794.000
144.422,7450.000,7449.000,7391.000,7397.000,7306.000,7320.000
157.804,7058.000,7104.000,7034.000,7043.000,7009.000,7105.000
171.164,6757.000,6614.000,6695.000,6717.000,6747.000,6717.000
184.504,6459.000,6401.000,6497.000,6368.000,6375.000,6444.000
197.829,6426.000,6357.000,6483.000,6404.000,6457.000,6397.000
211.132,6439.000,6450.000,6444.000,6457.000,6480.000,6381.000
224.417,6351.000,6475.000,6483.000,6500.000,6438.000,6516.000
237.681,6502.000,6481.000,6461.000,6424.000,6533.000,6419.000
250.929,6403.000,6441.000,6487.000,6434.000,6457.000,6401.000
264.156,6562.000,6601.000,6553.000,6523.000,6584.000,6582.000
277.367,6785.000,6897.000,6846.000,6818.000,6833.000,6849.000
290.556,7144.000,7113.000,7122.000,7038.000,7048.000,7064.000
303.728,7450.000,7388.000,7458.000,7370.000,7355.000,7294.000
316.880,7750.000,7804.000,7759.000,7760.000,7709.000,7725.000
330.014,7927.000,7888.000,7984.000,7808.000,7886.000,7925.000
343.130,8412.000,8405.000,8459.000,8436.000,8359.000,8353.000
356.226,9064.000,8995.000,9025.000,9016.000,9064.000,8957.000
369.305,9550.000,9631.000,9625.000,9633.000,9478.000,9471.000
382.363,9903.000,9859.000,9873.000,10014.000,9839.000,9931.000
395.405,10409.000,10275.000,10332.000,10360.000,10325.000,10276.000
408.428,10802.000,10623.000,10628.000,10554.000,10686.000,10549.000
421.432,10972.000,10984.000,11026.000,11090.000,11081.000,10975.000
434.417,11675.000,11707.000,11628.000,11762.000,11647.000,11595.000
447.386,12454.000,12532.000,12514.000,12439.000,12551.000,12401.000
460.335,13284.000,13351.000,13279.000,13231.000,13233.000,13343.000
473.265,14219.000,14234.000,14238.000,14203.000,14253.000,14140.000
486.179,14630.000,14619.000,14720.000,14571.000,14833.000,14622.000
499.072,12544.000,12574.000,12507.000,12428.000,12483.000,12415.000
511.950,8845.000,8843.000,8803.000,8833.000,8794.000,8844.000
524.807,6540.000,6576.000,6485.000,6560.000,6516.000,6483.000
537.649,5536.000,5581.000,5535.000,5493.000,5429.000,5579.000
550.469,4787.000,4865.000,4822.000,4786.000,4819.000,4769.000
563.275,4191.000,4206.000,4215.000,4229.000,4196.000,4204.000
576.060,3907.000,3849.000,3863.000,3817.000,3831.000,3876.000
588.829,3451.000,3442.000,3482.000,3458.000,3464.000,3487.000
601.579,3192.000,3199.000,3195.000,3160.000,3204.000,3167.000
614.310,2975.000,2970.000,2918.000,2997.000,2969.000,2952.000
627.026,2703.000,2752.000,2694.000,2686.000,2752.000,2747.000
639.723,2573.000,2547.000,2504.000,2577.000,2532.000,2527.000
652.403,2368.000,2363.000,2383.000,2382.000,2423.000,2387.000
665.064,2312.000,2326.000,2291.000,2317.000,2311.000,2323.000
677.709,2272.000,2291.000,2244.000,2278.000,2292.000,2269.000
690.334,2192.000,2175.000,2229.000,2192.000,2247.000,2241.000
702.944,2131.000,2144.000,2147.000,2068.000,2130.000,2106.000
715.535,2072.000,2102.000,2083.000,2078.000,2067.000,2083.000
728.106,2056.000,2062.000,2048.000,2075.000,2051.000,2052.000
740.664,2036.000,1981.000,2051.000,2020.000,2017.000,1975.000
753.202,1974.000,1971.000,1963.000,1998.000,1993.000,1955.000
765.725,2082.000,2075.000,2040.000,2041.000,2050.000,2024.000
778.228,2492.000,2484.000,2484.000,2498.000,2496.000,2458.000
790.716,2718.000,2696.000,2754.000,2696.000,2679.000,2726.000
803.184,2722.000,2723.000,2727.000,2670.000,2685.000,2694.000
815.637,2545.000,2584.000,2542.000,2535.000,2508.000,2536.000
828.071,2333.000,2319.000,2302.000,2312.000,2322.000,2317.000
840.489,1983.000,1995.000,2036.000,1967.000,1968.000,1919.000
852.890,1762.000,1773.000,1755.000,1776.000,1763.000,1791.000
865.272,1738.000,1730.000,1733.000,1737.000,1706.000,1739.000
877.640,1791.000,1782.000,1788.000,1824.000,1781.000,1799.000
889.988,1975.000,1902.000,1910.000,1879.000,1868.000,1914.000
902.321,2048.000,2113.000,2074.000,2077.000,2085.000,2063.000
914.635,2222.000,2242.000,2237.000,2276.000,2201.000,2225.000
926.934,2400.000,2392.000,2424.000,2400.000,2432.000,2439.000
939.215,2764.000,2781.000,2801.000,2730.000,2756.000,2757.000
951.481,3252.000,3286.000,3240.000,3197.000,3259.000,3150.000
963.727,3706.000,3737.000,3708.000,3710.000,3730.000,3723.000
975.959,3714.000,3744.000,3731.000,3686.000,3715.000,3694.000
988.172,3047.000,3096.000,3056.000,3121.000,3023.000,3002.000
1000.369,2332.000,2312.000,2358.000,2357.000,2364.000,2360.000
1012.551,1966.000,1927.000,1933.000,1968.000,1939.000,1944.000
1024.714,1809.000,1793.000,1845.000,1867.000,1803.000,1828.000
1036.863,1794.000,1784.000,1769.000,1807.000,1777.000,1746.000
1048.994,1772.000,1761.000,1812.000,1754.000,1761.000,1748.000
1061.109,1757.000,1787.000,1732.000,1751.000,1726.000,1770.000
1073.206,1694.000,1671.000,1682.000,1708.000,1709.000,1701.000
1085.287,1625.000,1627.000,1629.000,1586.000,1614.000,1590.000
1097.351,1533.000,1549.000,1516.000,1541.000,1525.000,1517.000
1109.401,1489.000,1451.000,1461.000,1471.000,1438.000,1449.000
1121.432,1407.000,1437.000,1433.000,1449.000,1451.000,1400.000
1133.447,1461.000,1474.000,1442.000,1448.000,1439.000,1467.000
1145.447,1480.000,1456.000,1456.000,1467.000,1468.000,1487.000
1157.430,1487.000,1473.000,1459.000,1433.000,1441.000,1447.000
1169.397,1436.000,1419.000,1427.000,1417.000,1432.000,1427.000
1181.347,1411.000,1414.000,1419.000,1442.000,1402.000,1405.000
1193.282,1365.000,1383.000,1395.000,1377.000,1395.000,1341.000
1205.200,1343.000,1309.000,1352.000,1318.000,1316.000,1326.000
1217.103,1304.000,1318.000,1303.000,1317.000,1305.000,1283.000
1228.988,1258.000,1249.000,1226.000,1233.000,1263.000,1260.000
1240.858,1205.000,1224.000,1217.000,1197.000,1193.000,1202.000
1252.712,1148.000,1169.000,1177.000,1168.000,1170.000,1151.000
1264.549,1211.000,1195.000,1191.000,1182.000,1165.000,1179.000
1276.372,1151.000,1151.000,1161.000,1128.000,1152.000,1168.000
1288.177,1092.000,1089.000,1093.000,1091.000,1081.000,1083.000
1299.969,1094.000,1082.000,1086.000,1099.000,1079.000,1088.000
1311.742,1103.000,1062.000,1098.000,1085.000,1083.000,1075.000
1323.501,1077.000,1080.000,1067.000,1049.000,1081.000,1081.000
1335.243,1087.000,1057.000,1080.000,1078.000,1089.000,1024.000
1346.970,1064.000,1077.000,1040.000,1040.000,1045.000,1054.000
1358.680,1069.000,1082.000,1080.000,1068.000,1074.000,1090.000
1370.376,1164.000,1153.000,1175.000,1169.000,1157.000,1128.000
1382.057,1166.000,1143.000,1158.000,1156.000,1127.000,1151.000
1393.719,1106.000,1080.000,1096.000,1109.000,1093.000,1075.000
1405.369,1088.000,1087.000,1091.000,1082.000,1096.000,1046.000
1417.001,1077.000,1084.000,1087.000,1073.000,1054.000,1060.000
1428.619,1066.000,1093.000,1062.000,1095.000,1067.000,1067.000
1440.220,1090.000,1079.000,1076.000,1063.000,1087.000,1081.000
1451.807,1100.000,1081.000,1046.000,1077.000,1066.000,1061.000
1463.377,1072.000,1088.000,1078.000,1086.000,1091.000,1081.000
1474.934,1101.000,1115.000,1082.000,1087.000,1121.000,1076.000
1486.473,1097.000,1115.000,1099.000,1077.000,1069.000,1090.000
1497.997,1105.000,1112.000,1091.000,1123.000,1098.000,1087.000
1509.507,1113.000,1130.000,1108.000,1120.000,1095.000,1119.000
1521.001,1151.000,1138.000,1105.000,1124.000,1122.000,1113.000
1532.480,1146.000,1150.000,1142.000,1152.000,1132.000,1118.000
1543.943,1148.000,1151.000,1134.000,1168.000,1163.000,1147.000
1555.392,1182.000,1195.000,1159.000,1156.000,1157.000,1156.000
1566.824,1173.000,1177.000,1169.000,1177.000,1182.000,1186.000
1578.243,1194.000,1200.000,1161.000,1185.000,1207.000,1171.000
1589.645,1217.000,1206.000,1247.000,1201.000,1211.000,1206.000
1601.034,1251.000,1250.000,1223.000,1237.000,1249.000,1218.000
1612.405,1277.000,1227.000,1246.000,1273.000,1236.000,1250.000
1623.763,1264.000,1253.000,1234.000,1230.000,1263.000,1245.000
1635.106,1220.000,1222.000,1205.000,1210.000,1213.000,1220.000
1646.432,1184.000,1179.000,1151.000,1162.000,1189.000,1148.000
1657.747,1143.000,1168.000,1166.000,1129.000,1128.000,1132.000
1669.044,1121.000,1136.000,1118.000,1136.000,1132.000,1129.000
1680.328,1123.000,1128.000,1120.000,1128.000,1127.000,1120.000
1691.594,1107.000,1118.000,1108.000,1127.000,1103.000,1069.000
1702.848,1108.000,1106.000,1088.000,1105.000,1083.000,1082.000
1714.086,1095.000,1106.000,1097.000,1100.000,1072.000,1071.000
1725.311,1085.000,1099.000,1065.000,1081.000,1071.000,1058.000
1736.519,1070.000,1105.000,1095.000,1101.000,1072.000,1069.000
1747.712,1087.000,1080.000,1087.000,1079.000,1099.000,1081.000
1758.893,1094.000,1082.000,1086.000,1052.000,1074.000,1073.000
1770.057,1069.000,1082.000,1070.000,1074.000,1079.000,1076.000
1781.209,1071.000,1088.000,1077.000,1101.000,1071.000,1072.000
1792.343,1098.000,1105.000,1075.000,1093.000,1080.000,1086.000
1803.465,1093.000,1076.000,1104.000,1089.000,1074.000,1074.000
1814.571,1107.000,1084.000,1123.000,1113.000,1110.000,1096.000
1816.157,1101.000,1076.000,1120.000,1107.000,1092.000,1084.000