Folder: Data/Raman/Silica (part 30)

File: 2025_08_22_BB1392_SiO2_8wtPctH2O_Glass_50X_532nm_6mW_Kymera328_600gv_3600wn_3accum_30s_Unpol_Pos2.csv
2010.804,3182.000,3194.000,3201.000
2024.460,3186.000,3187.000,3191.000
2038.093,3183.000,3176.000,3180.000
2051.704,3194.000,3199.000,3195.000
2065.292,3193.000,3180.000,3203.000
2078.861,3185.000,3185.000,3186.000
2092.404,3186.000,3187.000,3183.000
2105.928,3186.000,3201.000,3205.000
2119.431,3200.000,3191.000,3184.000
2132.909,3182.000,3199.000,3196.000
2146.367,3189.000,3180.000,3203.000
2159.803,3183.000,3191.000,3183.000
2173.217,3197.000,3184.000,3200.000
2186.611,3187.000,3201.000,3196.000
2199.981,3187.000,3194.000,3196.000
2213.332,3177.000,3197.000,3177.000
2226.659,3197.000,3195.000,3194.000
2239.967,3203.000,3182.000,3181.000
2253.251,3184.000,3199.000,3187.000
2266.516,3195.000,3190.000,3196.000
2279.760,3196.000,3202.000,3201.000
2292.980,3194.000,3194.000,3199.000
2306.181,3199.000,3201.000,3189.000
2319.359,3191.000,3214.000,3202.000
2332.519,3218.000,3200.000,3194.000
2345.658,3193.000,3206.000,3209.000
2358.773,3206.000,3204.000,3197.000
2371.869,3203.000,3224.000,3189.000
2384.943,3197.000,3190.000,3202.000
2397.997,3198.000,3201.000,3197.000
2411.030,3208.000,3182.000,3202.000
2424.042,3217.000,3206.000,3200.000
2437.036,3195.000,3195.000,3212.000
2450.005,3183.000,3211.000,3212.000
2462.957,3207.000,3216.000,3188.000
2475.886,3190.000,3214.000,3189.000
2488.796,3199.000,3217.000,3195.000
2501.684,3228.000,3226.000,3190.000
2514.554,3210.000,3198.000,3204.000
2527.403,3192.000,3190.000,3200.000
2540.231,3206.000,3204.000,3213.000
2553.040,3206.000,3207.000,3196.000
2565.827,3195.000,3212.000,3205.000
2578.595,3218.000,3220.000,3185.000
2591.344,3196.000,3215.000,3212.000
2604.071,3218.000,3217.000,3210.000
2616.778,3205.000,3219.000,3208.000
2629.465,3223.000,3223.000,3208.000
2642.135,3214.000,3218.000,3205.000
2654.782,3210.000,3200.000,3210.000
2667.411,3235.000,3207.000,3217.000
2680.020,3215.000,3225.000,3229.000
2692.608,3232.000,3217.000,3239.000
2705.178,3216.000,3237.000,3219.000
2717.727,3237.000,3226.000,3248.000
2730.258,3229.000,3222.000,3224.000
2742.769,3239.000,3248.000,3238.000
2755.259,3249.000,3256.000,3237.000
2767.731,3252.000,3243.000,3235.000
2780.183,3255.000,3258.000,3260.000
2792.617,3261.000,3273.000,3270.000
2805.029,3281.000,6523.000,3267.000
2817.424,3266.000,3267.000,3271.000
2829.800,3288.000,3272.000,3272.000
2842.155,3304.000,3281.000,3317.000
2854.493,3297.000,3324.000,3311.000
2866.809,3314.000,3304.000,3313.000
2879.110,3316.000,3302.000,3324.000
2891.388,3321.000,3330.000,3358.000
2903.650,3359.000,3365.000,3384.000
2915.893,3408.000,3411.000,3391.000
2928.115,3397.000,3400.000,3383.000
2940.320,3377.000,3369.000,3391.000
2952.505,3412.000,3398.000,3389.000
2964.673,3417.000,3428.000,3411.000
2976.822,3438.000,3416.000,3427.000
2988.950,3418.000,3430.000,3442.000
3001.062,3426.000,3436.000,3453.000
3013.154,3463.000,3436.000,3447.000
3025.229,3473.000,3451.000,3468.000
3037.283,3498.000,3510.000,3475.000
3049.321,3493.000,3500.000,3507.000
3061.341,3504.000,3533.000,3512.000
3073.341,3558.000,3532.000,3526.000
3085.323,3561.000,3547.000,3535.000
3097.286,3558.000,3553.000,3547.000
3109.233,3575.000,3592.000,3610.000
3121.161,3579.000,3629.000,3620.000
3133.069,3675.000,3623.000,3614.000
3144.962,3678.000,3666.000,3688.000
3156.834,3659.000,3671.000,3707.000
3168.690,3718.000,3716.000,3753.000
3180.527,3702.000,3739.000,3758.000
3192.346,3778.000,3740.000,3761.000
3204.148,3771.000,3783.000,3796.000
3215.931,3797.000,3831.000,3784.000
3227.698,3791.000,3832.000,3871.000
3239.446,3847.000,3827.000,3823.000
3251.177,3845.000,3840.000,3842.000
3262.888,3843.000,3849.000,3880.000
3274.584,3876.000,3895.000,3840.000
3286.262,3923.000,3876.000,3921.000
3297.921,3922.000,3887.000,3924.000
3309.565,3912.000,3931.000,3947.000
3321.189,3936.000,3921.000,3954.000
3332.797,3944.000,3974.000,3964.000
3344.387,4010.000,3998.000,3992.000
3355.960,4044.000,4019.000,4037.000
3367.515,4008.000,4051.000,4016.000
3379.053,4075.000,4076.000,4046.000
3390.575,4082.000,4050.000,4088.000
3402.078,4110.000,4087.000,4113.000
3413.565,4101.000,4148.000,4107.000
3425.035,4114.000,4124.000,4097.000
3436.486,4135.000,4144.000,4154.000
3447.922,4120.000,4156.000,4132.000
3459.339,4166.000,4192.000,4167.000
3470.742,4167.000,4194.000,4159.000
3482.126,4179.000,4202.000,4162.000
3493.493,4180.000,4226.000,4181.000
3504.845,4211.000,4246.000,4211.000
3516.178,4272.000,4200.000,4266.000
3527.494,4241.000,4285.000,4245.000
3538.794,4302.000,4302.000,4315.000
3550.079,4359.000,4399.000,4370.000
3561.346,4438.000,4426.000,4457.000
3572.595,4566.000,4489.000,4541.000
3583.829,4579.000,4590.000,4577.000
3595.046,4542.000,4525.000,4519.000
3606.247,4419.000,4409.000,4403.000
3617.430,4333.000,4328.000,4325.000
3628.599,4298.000,4303.000,4301.000
3639.750,4264.000,4287.000,4253.000
3650.884,4213.000,4151.000,4186.000
3662.003,4017.000,4022.000,4021.000
3673.104,3813.000,3820.000,3838.000
3684.191,3599.000,3602.000,3606.000
3695.259,3461.000,3471.000,3461.000
3706.313,3387.000,3396.000,3394.000
3717.351,3353.000,3312.000,3349.000
3728.371,3323.000,3305.000,3323.000
3739.377,3300.000,3299.000,3283.000
3750.367,3291.000,3291.000,3304.000
3761.339,3303.000,3277.000,3272.000
3772.296,3276.000,3288.000,3272.000
3783.237,3271.000,3272.000,3267.000
3794.162,3254.000,3262.000,3256.000
3805.070,3237.000,3263.000,3257.000
3815.965,3258.000,3248.000,3279.000
3826.842,3258.000,3263.000,3274.000
3837.703,3271.000,3274.000,3262.000
3848.549,3243.000,3263.000,3247.000
3859.379,3271.000,3241.000,3263.000
3870.194,3266.000,3251.000,3267.000
3880.992,3252.000,3258.000,3260.000
3891.777,3257.000,3270.000,3271.000
3902.545,3257.000,3246.000,3258.000
3913.296,3249.000,3253.000,3254.000
3924.033,3257.000,3244.000,3251.000
3934.754,3273.000,3264.000,3242.000
3945.460,3252.000,3244.000,3255.000
3956.150,3236.000,3244.000,3258.000
3966.825,3249.000,3255.000,3259.000
3977.485,3246.000,3248.000,3254.000
3988.129,3245.000,3241.000,3243.000
3998.758,3244.000,3244.000,3230.000
4009.371,3242.000,3249.000,3240.000
4019.970,3256.000,3230.000,3242.000
4030.553,3245.000,3239.000,3231.000
4041.121,3251.000,3238.000,3238.000
4051.675,3236.000,3242.000,3260.000
4062.212,3235.000,3232.000,3220.000
4072.736,3230.000,3219.000,3234.000
4083.244,3227.000,3243.000,3220.000
4093.736,3213.000,3228.000,3233.000
4104.215,3221.000,3240.000,3215.000
4114.677,3228.000,3240.000,3235.000
4125.126,3245.000,3219.000,3222.000
4135.558,3236.000,3213.000,3219.000
4145.978,3242.000,3216.000,3227.000
4156.382,3234.000,3212.000,3224.000
4166.770,3219.000,3221.000,3217.000
4177.144,3217.000,3226.000,3202.000
4187.503,3219.000,3198.000,3210.000
4197.849,3215.000,3217.000,3224.000
4208.178,3210.000,3219.000,3247.000
4218.494,3219.000,3218.000,3212.000
4228.795,3214.000,3204.000,3215.000
4239.082,3198.000,3217.000,3219.000
4249.354,3231.000,3207.000,3221.000
4259.611,3210.000,3217.000,3221.000
4269.854,3208.000,3230.000,3217.000
4280.082,3208.000,3202.000,3235.000
4290.296,3221.000,3229.000,3205.000
4300.497,3213.000,3207.000,3203.000
4310.682,3197.000,3217.000,3199.000
4320.853,3203.000,3210.000,3214.000
4331.009,3210.000,3198.000,3197.000
4341.152,3210.000,3217.000,3203.000
4351.281,3223.000,3195.000,3219.000
4361.395,3212.000,3213.000,3206.000
4371.496,3221.000,3211.000,3207.000
4381.581,3206.000,3199.000,3212.000
4391.653,3214.000,3214.000,3207.000
4401.711,3208.000,3215.000,3212.000
4411.755,3208.000,3211.000,3222.000
4421.785,3199.000,3193.000,3208.000
4431.800,3208.000,3198.000,3215.000
4441.803,3211.000,3214.000,3200.000
4451.790,3190.000,3210.000,3220.000
4461.765,3219.000,3186.000,3202.000
4471.725,3216.000,3203.000,3201.000
4481.670,3194.000,3200.000,3206.000
4491.604,3208.000,3202.000,3204.000
4501.522,3182.000,3206.000,3201.000
4511.427,3214.000,3203.000,3206.000
4521.318,3216.000,3197.000,3198.000
4531.196,3211.000,3183.000,3207.000
4541.061,3206.000,3197.000,3199.000
4550.911,3206.000,3191.000,3184.000
4560.748,3205.000,3214.000,3203.000
4570.570,3194.000,3180.000,3203.000
4580.380,3199.000,3188.000,3202.000
4590.175,3204.000,3196.000,3186.000
4599.959,3191.000,3181.000,3201.000
4609.728,3207.000,3207.000,3197.000
4619.484,3193.000,3192.000,3185.000
4629.227,3193.000,3186.000,3199.000
4638.955,3197.000,3205.000,3193.000
4648.671,3201.000,3199.000,3180.000
4658.373,3177.000,3191.000,3202.000
4668.062,3187.000,3194.000,3179.000
4677.738,3182.000,3179.000,3182.000
4687.400,3178.000,3181.000,3179.000
4697.049,3187.000,3183.000,3187.000
4706.685,3197.000,3182.000,3202.000
4716.308,3181.000,3197.000,3180.000
4725.918,3196.000,3183.000,3169.000
4735.514,3195.000,3185.000,3186.000
4745.099,3182.000,3192.000,3196.000
4754.668,3190.000,3205.000,3194.000
4764.226,3188.000,3196.000,3186.000
4773.770,3187.000,3196.000,3196.000
4783.301,3198.000,3193.000,3185.000
4792.821,3201.000,3198.000,3193.000
4802.326,3176.000,3187.000,3198.000
4811.818,4896.000,3191.000,3197.000
4821.298,3212.000,3207.000,3181.000
4830.765,3197.000,3205.000,3208.000
4840.220,3197.000,3199.000,3197.000
4849.662,3205.000,3208.000,3212.000
4859.090,3206.000,3220.000,3191.000
4868.506,3196.000,3194.000,3226.000
4877.909,3209.000,3216.000,3222.000
4887.299,3236.000,3206.000,3222.000
4896.677,3218.000,3235.000,3223.000
4903.703,3246.000,3235.000,3221.000

File: 2025_08_22_BB1392_SiO2_8wtPctH2O_Glass_50X_532nm_12mW_Kymera328_300gv_3000wn_3accum_60s_Unpol.csv
-1027.971,3278.000,3266.000,3268.000
-988.527,3319.000,3334.000,3306.000
-949.242,3351.000,3361.000,3347.000
-910.112,3368.000,3359.000,3364.000
-871.134,3402.000,3399.000,3380.000
-832.312,3455.000,3430.000,3434.000
-793.643,3483.000,3499.000,3523.000
-755.126,3557.000,3535.000,3498.000
-716.759,3589.000,3589.000,3576.000
-678.542,3631.000,3645.000,3676.000
-640.479,3756.000,3775.000,3737.000
-602.559,3989.000,3955.000,3956.000
-564.789,4279.000,4248.000,4244.000
-527.164,4977.000,4879.000,4919.000
-489.688,6215.000,6178.000,6119.000
-452.355,7089.000,7032.000,7037.000
-415.165,7565.000,7430.000,7480.000
-378.122,7656.000,7778.000,7762.000
-341.221,8037.000,7997.000,8053.000
-304.460,8421.000,8384.000,8335.000
-267.840,8965.000,8826.000,8956.000
-231.358,9845.000,9751.000,9765.000
-195.022,11269.000,11265.000,11219.000
-158.818,13630.000,13593.000,13647.000
-122.755,17572.000,17346.000,17454.000
-86.827,23205.000,23072.000,23176.000
-51.039,30460.000,30166.000,30186.000
-15.382,65535.000,65535.000,65535.000
20.139,65535.000,65535.000,65535.000
55.524,65535.000,65535.000,65535.000
90.779,65535.000,65535.000,65535.000
125.899,65535.000,65535.000,65535.000
160.890,31305.000,31211.000,31020.000
195.746,24245.000,24136.000,24103.000
230.476,22713.000,22427.000,22612.000
265.077,22409.000,22379.000,22500.000
299.547,23190.000,23127.000,23007.000
333.888,24633.000,24562.000,24429.000
368.102,26332.000,26319.000,26338.000
402.192,28347.000,28412.000,28145.000
436.157,31068.000,30814.000,30996.000
469.991,33220.000,33237.000,32970.000
503.705,28180.000,28098.000,27926.000
537.295,20864.000,20791.000,20516.000
570.762,15875.000,15732.000,15646.000
604.103,13174.000,13079.000,13135.000
637.326,12243.000,11664.000,11581.000
670.426,11076.000,10906.000,10706.000
703.408,10565.000,10368.000,10367.000
736.267,10384.000,10210.000,10140.000
769.008,11138.000,10936.000,10861.000
801.632,11636.000,11446.000,11344.000
834.134,10934.000,10873.000,10645.000
866.524,10102.000,9953.000,9930.000
898.796,10464.000,10105.000,10073.000
930.951,11717.000,11523.000,11444.000
962.991,13355.000,13034.000,12852.000
994.915,12439.000,12351.000,12223.000
1026.727,11357.000,11191.000,10973.000
1058.424,10758.000,10540.000,10336.000
1090.008,10437.000,10185.000,10045.000
1121.480,10288.000,10003.000,9889.000
1152.842,10149.000,9916.000,9782.000
1184.092,9875.000,9659.000,9569.000
1215.230,9474.000,9261.000,9091.000
1246.260,9108.000,8923.000,8686.000
1277.179,8932.000,8716.000,8498.000
1307.992,8946.000,8574.000,8406.000
1338.694,8846.000,8623.000,8492.000
1369.289,9087.000,8812.000,8686.000
1399.779,9100.000,8772.000,8628.000
1430.161,9247.000,8881.000,8790.000
1460.436,9323.000,8928.000,9002.000
1490.606,9464.000,9288.000,9021.000
1520.672,9583.000,9447.000,9163.000
1550.635,9868.000,9439.000,9239.000
1580.490,10019.000,9754.000,9549.000
1610.246,10127.000,9968.000,9599.000
1639.897,10162.000,9904.000,9670.000
1669.446,10216.000,9776.000,9556.000
1698.894,9953.000,9586.000,9451.000
1728.242,9991.000,9721.000,9363.000
1757.489,10068.000,9680.000,9450.000
1786.634,10067.000,9600.000,9497.000
1815.682,10088.000,9796.000,9634.000
1844.629,10245.000,9902.000,9574.000
1873.479,10333.000,9953.000,9802.000
1902.231,10457.000,10041.000,9877.000
1930.883,10598.000,10106.000,9891.000
1959.441,10582.000,10314.000,10053.000
1987.901,10754.000,10336.000,10197.000
2016.264,10884.000,10425.000,10193.000
2044.532,10957.000,10521.000,10203.000
2072.707,11010.000,10543.000,10237.000
2100.785,11131.000,10778.000,10454.000
2128.769,11223.000,10844.000,10679.000
2156.662,11285.000,10846.000,10557.000
2184.459,11369.000,11011.000,10736.000
2212.165,11602.000,11130.000,10782.000
2239.776,11675.000,11341.000,11025.000
2267.299,11773.000,11379.000,11114.000
2294.729,12017.000,11571.000,11303.000
2322.066,12300.000,11952.000,11584.000
2349.315,12429.000,12080.000,11753.000
2376.473,12636.000,12278.000,12019.000
2403.543,12870.000,12384.000,12022.000
2430.521,13046.000,12590.000,12330.000
2457.413,13069.000,12577.000,12254.000
2484.215,13090.000,12593.000,12379.000
2510.932,13384.000,12872.000,12512.000
2537.559,13435.000,13016.000,12568.000
2564.099,13635.000,13005.000,12785.000
2590.555,13799.000,13319.000,12866.000
2616.923,13870.000,13352.000,13147.000
2643.205,14131.000,13547.000,13220.000
2669.403,14344.000,13733.000,13421.000
2695.516,14341.000,13963.000,13671.000
2721.544,14690.000,14154.000,13895.000
2747.486,14716.000,14136.000,13947.000
2773.348,14939.000,14464.000,14208.000
2799.124,15161.000,14582.000,14148.000
2824.821,15494.000,14923.000,14815.000
2850.431,15791.000,15496.000,15066.000
2875.962,16214.000,15595.000,15436.000
2901.412,16713.000,16314.000,15970.000
2926.776,17065.000,16579.000,16253.000
2952.064,17598.000,16950.000,16685.000
2977.269,17956.000,17179.000,17056.000
3002.396,18392.000,17756.000,17452.000
3027.442,18696.000,18143.000,17767.000
3052.408,18906.000,18466.000,18141.000
3077.298,19682.000,19019.000,18732.000
3102.106,20100.000,19613.000,19152.000
3126.837,20542.000,20024.000,19774.000
3151.492,21058.000,20504.000,20285.000
3176.067,21492.000,21077.000,20737.000
3200.565,22076.000,21673.000,21253.000
3224.987,22581.000,22146.000,21952.000
3249.334,24609.000,22716.000,22397.000
3273.603,23764.000,23267.000,22740.000
3297.798,24228.000,23793.000,23315.000
3321.915,24711.000,24164.000,23900.000
3345.960,25283.000,24819.000,24344.000
3369.930,25871.000,24970.000,25017.000
3393.825,26497.000,25661.000,25493.000
3417.645,26711.000,26322.000,25925.000
3441.392,27259.000,26526.000,26540.000
3465.068,27305.000,27014.000,26600.000
3488.670,27911.000,27457.000,27070.000
3512.197,28472.000,27918.000,27578.000
3535.655,29107.000,28670.000,28141.000
3559.039,30282.000,29765.000,29388.000
3582.352,31347.000,30859.000,30680.000
3605.593,30709.000,30318.000,29926.000
3628.765,30072.000,29757.000,29443.000
3651.866,28849.000,28324.000,28108.000
3674.895,26796.000,26477.000,26002.000
3697.857,24798.000,24498.000,24003.000
3720.747,24090.000,23590.000,23290.000
3743.569,23668.000,23378.000,23063.000
3766.319,23819.000,23449.000,22967.000
3789.004,23964.000,23419.000,23172.000
3811.621,23985.000,23356.000,23224.000
3834.167,24153.000,23519.000,23016.000
3856.647,24171.000,23587.000,23396.000
3879.058,24390.000,23934.000,23638.000
3901.404,24557.000,24107.000,23860.000
3923.684,24808.000,24426.000,24204.000
3945.893,24932.000,24512.000,24342.000
3968.038,25415.000,24882.000,24474.000
3990.118,25376.000,24782.000,24640.000
4012.134,25317.000,24908.000,24606.000
4034.080,25581.000,25040.000,24806.000
4055.964,25828.000,25143.000,24944.000
4077.783,25713.000,25366.000,24964.000
4099.536,25868.000,25267.000,24976.000
4121.226,25619.000,25220.000,25054.000
4142.852,25806.000,25177.000,24926.000
4164.415,25763.000,25269.000,24917.000
4185.913,25680.000,25157.000,25108.000
4207.349,25692.000,25239.000,25076.000
4228.723,26024.000,25451.000,25064.000
4250.033,25819.000,27145.000,25204.000
4271.280,26129.000,25541.000,25361.000
4292.468,26156.000,25701.000,25590.000
4313.592,26465.000,25870.000,25612.000
4334.655,26234.000,25919.000,25662.000
4355.657,26211.000,25894.000,25815.000
4376.597,26570.000,25914.000,25760.000
4397.479,26075.000,25560.000,25324.000
4418.300,25758.000,25561.000,25312.000
4439.058,25670.000,25363.000,25085.000
4459.759,25729.000,25610.000,25102.000
4480.399,25750.000,25394.000,24971.000
4500.980,25746.000,25372.000,24973.000
4521.502,25461.000,25019.000,24764.000
4541.965,25380.000,24679.000,24850.000
4562.370,25113.000,24848.000,24512.000
4582.715,25025.000,24573.000,24454.000
4603.004,25186.000,24879.000,24375.000
4623.234,24810.000,24790.000,24506.000
4643.407,24884.000,24574.000,24280.000
4663.522,24597.000,24200.000,24132.000
4683.581,24236.000,24026.000,23906.000
4703.582,24021.000,23718.000,23371.000
4723.528,24119.000,23680.000,23499.000
4743.415,23628.000,23426.000,23134.000
4763.248,23799.000,23340.000,23217.000
4783.024,23387.000,23077.000,22965.000
4802.746,23204.000,22823.000,22811.000
4822.410,23148.000,22683.000,22636.000
4842.021,22902.000,22498.000,22464.000
4861.577,22415.000,22326.000,22117.000
4881.077,22520.000,22275.000,22077.000
4900.523,22262.000,22039.000,21946.000
4919.915,22224.000,21725.000,21775.000
4939.251,22263.000,21824.000,21595.000
4958.537,22035.000,21531.000,21554.000
4977.766,21907.000,21663.000,21299.000
4996.943,21542.000,21319.000,21118.000
5016.067,21379.000,21218.000,20879.000
5035.138,21313.000,20836.000,20730.000
5054.156,20897.000,20599.000,20377.000
5073.122,20572.000,20303.000,20217.000
5092.035,20485.000,20282.000,20012.000
5110.895,20262.000,19976.000,19901.000
5129.704,20117.000,20019.000,19784.000
5148.464,19921.000,19710.000,19474.000
5167.170,19577.000,19475.000,19257.000
5185.825,19346.000,19158.000,18873.000
5204.428,18978.000,18724.000,18629.000
5222.982,18669.000,18503.000,18300.000
5241.485,18539.000,18299.000,18204.000
5259.937,18417.000,18192.000,18059.000
5278.340,18180.000,17995.000,17769.000
5296.692,18253.000,18058.000,17842.000
5314.995,18166.000,17811.000,17714.000
5333.247,18204.000,18032.000,17646.000
5351.451,17987.000,17613.000,17590.000
5369.606,17733.000,17605.000,17387.000
5387.711,17559.000,17144.000,17009.000
5405.768,17258.000,17134.000,16989.000
5423.777,17012.000,16652.000,16638.000
5441.736,16871.000,16714.000,16686.000
5459.648,16585.000,16361.000,16268.000
5477.510,16463.000,16348.000,16060.000
5495.328,16148.000,15890.000,15894.000
5513.095,15982.000,15711.000,15576.000
5530.816,15651.000,15436.000,15384.000
5548.489,15430.000,15339.000,15209.000
5566.116,15501.000,15261.000,15183.000
5583.697,15210.000,15111.000,14843.000
5601.228,15113.000,15071.000,14778.000
5618.716,14869.000,14709.000,14535.000
5636.157,14745.000,14593.000,14557.000
5653.551,14633.000,14345.000,14229.000
5666.567,14600.000,14381.000,14145.000