Folder: Data/Raman/Silica (part 16)

File: 2022_12_08_SiO2_MQ_2000C_532nm_DePol_74mW_750mm_600gv_977wn_iDus_30s_3accum_Pos2.csv
34.493,1114.000,1091.000,1097.000
42.233,1341.000,1329.000,1287.000
49.965,1285.000,1284.000,1276.000
57.693,1247.000,1239.000,1190.000
65.412,1361.000,1360.000,1386.000
73.127,1281.000,1240.000,1251.000
80.834,1255.000,1257.000,1244.000
88.536,1213.000,1240.000,1202.000
96.232,1279.000,1288.000,1293.000
103.919,1156.000,1162.000,1123.000
111.603,1218.000,1182.000,1209.000
119.278,1173.000,1177.000,1160.000
126.948,1153.000,1111.000,1116.000
134.613,1066.000,1075.000,1050.000
142.269,1099.000,1087.000,1083.000
149.920,1040.000,1007.000,1017.000
157.564,1015.000,997.000,1002.000
165.203,992.000,984.000,961.000
172.834,1005.000,967.000,953.000
180.461,962.000,947.000,946.000
188.081,946.000,973.000,933.000
195.693,937.000,956.000,936.000
203.302,939.000,945.000,926.000
210.901,944.000,936.000,922.000
218.497,941.000,926.000,905.000
226.084,940.000,899.000,898.000
233.667,962.000,912.000,902.000
241.244,948.000,917.000,917.000
248.813,949.000,910.000,917.000
256.378,921.000,913.000,893.000
263.934,947.000,931.000,898.000
271.487,931.000,893.000,871.000
279.031,933.000,917.000,891.000
286.571,949.000,926.000,888.000
294.105,933.000,929.000,890.000
301.630,959.000,920.000,905.000
309.152,947.000,920.000,914.000
316.666,953.000,903.000,917.000
324.175,958.000,930.000,905.000
331.678,939.000,925.000,909.000
339.173,926.000,919.000,876.000
346.665,953.000,927.000,899.000
354.148,981.000,933.000,913.000
361.627,941.000,940.000,903.000
369.098,980.000,933.000,911.000
376.564,955.000,938.000,920.000
384.025,940.000,926.000,898.000
391.478,950.000,942.000,916.000
398.927,966.000,933.000,918.000
406.367,942.000,932.000,901.000
413.804,959.000,936.000,930.000
421.233,962.000,939.000,914.000
428.658,958.000,936.000,916.000
436.076,981.000,946.000,899.000
443.487,947.000,928.000,911.000
450.894,951.000,937.000,904.000
458.292,933.000,928.000,892.000
465.687,926.000,911.000,877.000
473.076,948.000,913.000,874.000
480.457,930.000,891.000,873.000
487.834,944.000,898.000,881.000
495.203,924.000,889.000,852.000
502.568,887.000,866.000,829.000
509.925,878.000,850.000,827.000
517.278,864.000,832.000,808.000
524.626,1186.000,829.000,803.000
531.965,839.000,825.000,781.000
539.300,878.000,813.000,794.000
546.628,853.000,814.000,782.000
553.952,861.000,810.000,778.000
561.268,851.000,813.000,785.000
568.580,834.000,798.000,777.000
575.886,848.000,825.000,777.000
583.184,859.000,802.000,773.000
590.479,865.000,837.000,788.000
597.765,850.000,824.000,784.000
605.048,875.000,820.000,790.000
612.323,842.000,809.000,780.000
619.594,850.000,838.000,783.000
626.859,859.000,799.000,761.000
634.117,834.000,821.000,763.000
641.371,839.000,816.000,782.000
648.616,849.000,798.000,774.000
655.859,835.000,798.000,781.000
663.095,849.000,819.000,779.000
670.324,839.000,815.000,781.000
677.548,833.000,818.000,775.000
684.765,851.000,819.000,781.000
691.979,852.000,798.000,790.000
699.184,876.000,816.000,787.000
706.386,855.000,818.000,773.000
713.582,854.000,813.000,780.000
720.771,851.000,840.000,790.000
727.955,850.000,831.000,785.000
735.132,857.000,828.000,795.000
742.306,877.000,830.000,805.000
749.471,878.000,848.000,807.000
756.633,881.000,859.000,816.000
763.789,935.000,883.000,833.000
770.938,946.000,893.000,873.000
778.083,997.000,946.000,935.000
785.220,998.000,938.000,940.000
792.354,1007.000,944.000,924.000
799.479,994.000,956.000,935.000
806.602,973.000,917.000,900.000
813.718,959.000,926.000,883.000
820.827,965.000,914.000,894.000
827.933,934.000,891.000,868.000
835.031,935.000,893.000,850.000
842.125,918.000,879.000,813.000
849.213,878.000,854.000,815.000
856.294,875.000,822.000,815.000
863.372,874.000,834.000,792.000
870.441,877.000,821.000,795.000
877.508,863.000,840.000,764.000
884.566,863.000,809.000,788.000
891.621,888.000,825.000,784.000
898.671,880.000,817.000,795.000
905.713,861.000,820.000,773.000
912.751,880.000,833.000,783.000
919.782,845.000,818.000,793.000
926.810,864.000,823.000,797.000
933.830,848.000,816.000,777.000
940.846,885.000,823.000,787.000
947.857,880.000,833.000,802.000
954.860,876.000,830.000,799.000
961.860,883.000,841.000,817.000
968.853,886.000,851.000,813.000
975.841,863.000,826.000,771.000
982.825,879.000,835.000,803.000
989.801,876.000,847.000,802.000
996.773,888.000,844.000,788.000
1003.738,911.000,832.000,796.000
1010.700,902.000,867.000,804.000
1017.654,905.000,888.000,839.000
1024.605,919.000,876.000,835.000
1031.550,937.000,886.000,853.000
1038.488,937.000,882.000,838.000
1045.422,929.000,884.000,845.000
1052.349,955.000,921.000,842.000
1059.273,955.000,881.000,866.000
1066.189,938.000,894.000,832.000
1073.102,917.000,893.000,843.000
1080.009,910.000,867.000,841.000
1086.909,925.000,872.000,842.000
1093.806,906.000,849.000,820.000
1100.695,893.000,843.000,802.000
1107.581,879.000,851.000,817.000
1114.462,901.000,840.000,808.000
1121.335,889.000,861.000,810.000
1128.205,897.000,852.000,807.000
1135.067,906.000,857.000,798.000
1141.927,914.000,871.000,823.000
1148.779,923.000,859.000,825.000
1155.627,911.000,850.000,826.000
1162.470,915.000,886.000,1702.000
1169.306,910.000,880.000,819.000
1176.139,909.000,866.000,816.000
1182.964,906.000,880.000,823.000
1189.786,924.000,857.000,822.000
1196.601,924.000,876.000,829.000
1203.413,914.000,879.000,836.000
1210.219,917.000,881.000,829.000
1217.018,925.000,845.000,830.000
1223.814,919.000,858.000,816.000
1230.602,903.000,874.000,821.000
1237.387,903.000,842.000,804.000
1244.166,908.000,849.000,807.000
1250.940,884.000,853.000,809.000
1257.710,867.000,847.000,803.000
1264.472,922.000,847.000,797.000
1271.231,900.000,856.000,791.000
1277.983,886.000,847.000,793.000
1284.732,909.000,838.000,807.000
1291.473,899.000,845.000,788.000
1298.212,903.000,831.000,804.000
1304.945,899.000,863.000,810.000
1311.671,911.000,866.000,809.000
1318.393,879.000,859.000,798.000
1325.109,905.000,863.000,805.000
1331.822,912.000,856.000,806.000
1338.529,896.000,830.000,796.000
1345.229,885.000,858.000,809.000
1351.926,890.000,852.000,805.000
1358.616,898.000,850.000,800.000
1365.303,900.000,825.000,795.000
1371.982,922.000,847.000,807.000
1378.659,897.000,862.000,817.000
1385.330,906.000,849.000,822.000
1391.994,891.000,851.000,788.000
1398.656,902.000,843.000,796.000
1405.310,889.000,843.000,824.000
1411.961,902.000,855.000,795.000
1418.605,903.000,869.000,804.000
1425.245,882.000,847.000,799.000
1431.881,913.000,846.000,814.000
1438.510,910.000,856.000,814.000
1445.135,902.000,880.000,812.000
1451.754,923.000,863.000,813.000
1458.370,910.000,865.000,816.000
1464.980,910.000,872.000,803.000
1471.583,900.000,859.000,803.000
1478.184,912.000,863.000,816.000
1484.777,925.000,861.000,816.000
1491.368,904.000,875.000,811.000
1497.951,918.000,866.000,821.000
1504.531,918.000,869.000,812.000
1511.107,897.000,856.000,814.000
1517.675,911.000,878.000,819.000
1524.240,911.000,872.000,820.000
1530.799,922.000,849.000,818.000
1537.354,929.000,888.000,818.000
1543.903,932.000,869.000,816.000
1550.448,937.000,863.000,834.000
1556.988,920.000,851.000,824.000
1563.522,912.000,880.000,819.000
1570.052,924.000,864.000,826.000
1576.576,919.000,890.000,819.000
1583.097,938.000,857.000,828.000
1589.612,927.000,893.000,834.000
1596.121,915.000,883.000,823.000
1602.627,938.000,875.000,820.000
1609.126,931.000,881.000,814.000
1615.622,920.000,870.000,834.000
1622.112,931.000,871.000,830.000
1628.598,928.000,863.000,817.000
1635.079,942.000,872.000,812.000
1641.554,929.000,871.000,824.000
1648.025,913.000,885.000,834.000
1654.490,926.000,880.000,825.000
1660.952,932.000,892.000,839.000
1667.407,932.000,889.000,832.000
1673.859,904.000,865.000,810.000
1680.306,936.000,880.000,830.000
1686.746,936.000,901.000,826.000
1693.184,932.000,879.000,814.000
1699.615,928.000,875.000,826.000
1706.042,950.000,872.000,815.000
1712.465,947.000,880.000,844.000
1718.882,943.000,881.000,833.000
1725.295,922.000,883.000,831.000
1731.702,947.000,890.000,830.000
1738.105,937.000,887.000,835.000
1744.502,933.000,889.000,833.000
1750.897,955.000,883.000,838.000
1757.284,962.000,883.000,842.000
1763.669,952.000,895.000,822.000
1770.048,957.000,899.000,849.000
1776.421,934.000,891.000,843.000
1782.792,956.000,908.000,840.000
1789.155,952.000,915.000,852.000
1795.516,959.000,906.000,848.000
1801.872,965.000,897.000,849.000
1808.221,970.000,914.000,854.000
1814.567,994.000,918.000,871.000
1820.907,955.000,938.000,875.000
1825.661,1007.000,929.000,894.000

File: 2022_12_08_SiO2_MQ_2000C_532nm_Pol_74mW_750mm_600gv_977wn_iDus_30s_3accum_Pos2.csv
34.493,1717.000,1660.000,1669.000
42.233,2015.000,2009.000,2032.000
49.965,2002.000,1990.000,1993.000
57.693,1976.000,2022.000,1928.000
65.412,2208.000,2160.000,2140.000
73.127,2067.000,2021.000,2059.000
80.834,1990.000,2013.000,2024.000
88.536,2003.000,2058.000,2032.000
96.232,2093.000,2082.000,2115.000
103.919,1940.000,1963.000,1979.000
111.603,1996.000,2015.000,2004.000
119.278,1956.000,1950.000,1895.000
126.948,1883.000,1899.000,1903.000
134.613,1874.000,1838.000,1895.000
142.269,1909.000,1910.000,1865.000
149.920,1821.000,1803.000,1846.000
157.564,1805.000,1855.000,1780.000
165.203,1798.000,1856.000,1798.000
172.834,1811.000,1820.000,1816.000
180.461,1827.000,1833.000,1796.000
188.081,1840.000,1817.000,1805.000
195.693,1806.000,1824.000,1850.000
203.302,1847.000,1802.000,1873.000
210.901,1913.000,1911.000,1834.000
218.497,1890.000,1928.000,1881.000
226.084,1920.000,1935.000,1897.000
233.667,2003.000,1969.000,2013.000
241.244,2064.000,2015.000,2015.000
248.813,1977.000,2013.000,2025.000
256.378,2155.000,2141.000,2140.000
263.934,2142.000,2172.000,2198.000
271.487,2171.000,2175.000,2184.000
279.031,2331.000,2266.000,2265.000
286.571,2343.000,2371.000,2371.000
294.105,2371.000,2358.000,2344.000
301.630,2502.000,2415.000,2450.000
309.152,2485.000,2471.000,2467.000
316.666,2534.000,2530.000,2502.000
324.175,2574.000,2636.000,2623.000
331.678,2651.000,2645.000,2663.000
339.173,2745.000,2720.000,2690.000
346.665,2835.000,2808.000,2780.000
354.148,2908.000,2836.000,2823.000
361.627,2882.000,2911.000,2873.000
369.098,3032.000,3043.000,3052.000
376.564,3050.000,3084.000,3026.000
384.025,3085.000,3060.000,3106.000
391.478,3188.000,3171.000,3189.000
398.927,3210.000,3165.000,3176.000
406.367,3202.000,3201.000,3197.000
413.804,3259.000,3238.000,3254.000
421.233,3230.000,3290.000,3240.000
428.658,3285.000,3320.000,3260.000
436.076,3358.000,3407.000,3360.000
443.487,3294.000,3305.000,3303.000
450.894,3359.000,3283.000,3329.000
458.292,3251.000,3298.000,3296.000
465.687,3125.000,3126.000,3151.000
473.076,3138.000,3113.000,3110.000
480.457,3214.000,3203.000,3231.000
487.834,3256.000,3259.000,3205.000
495.203,3074.000,3006.000,3026.000
502.568,2612.000,2586.000,2614.000
509.925,2139.000,2131.000,2162.000
517.278,1845.000,1868.000,1852.000
524.626,1665.000,1672.000,1657.000
531.965,1522.000,1522.000,1499.000
539.300,1453.000,1445.000,1445.000
546.628,1391.000,1375.000,1386.000
553.952,1329.000,1310.000,1317.000
561.268,1313.000,1298.000,1294.000
568.580,1258.000,1253.000,1242.000
575.886,1253.000,1269.000,1266.000
583.184,1272.000,1266.000,1285.000
590.479,1306.000,1319.000,1307.000
597.765,1406.000,1399.000,1407.000
605.048,1380.000,1365.000,1368.000
612.323,1270.000,1259.000,1255.000
619.594,1180.000,1180.000,1176.000
626.859,1121.000,1119.000,1073.000
634.117,1080.000,1070.000,1077.000
641.371,1033.000,1038.000,1026.000
648.616,1007.000,1002.000,1010.000
655.859,996.000,977.000,944.000
663.095,974.000,999.000,982.000
670.324,982.000,969.000,963.000
677.548,979.000,967.000,988.000
684.765,972.000,981.000,952.000
691.979,954.000,958.000,957.000
699.184,958.000,945.000,974.000
706.386,957.000,964.000,967.000
713.582,960.000,960.000,935.000
720.771,969.000,942.000,973.000
727.955,990.000,947.000,968.000
735.132,958.000,978.000,990.000
742.306,951.000,956.000,956.000
749.471,964.000,960.000,955.000
756.633,982.000,989.000,1000.000
763.789,1039.000,1028.000,1020.000
770.938,1092.000,1064.000,1114.000
778.083,1170.000,1166.000,1171.000
785.220,1203.000,1176.000,1188.000
792.354,1170.000,1190.000,1196.000
799.479,1194.000,1201.000,1183.000
806.602,1188.000,1189.000,1181.000
813.718,1161.000,1178.000,1156.000
820.827,1150.000,1167.000,1137.000
827.933,1150.000,1106.000,1130.000
835.031,1102.000,1076.000,1098.000
842.125,1055.000,1027.000,1020.000
849.213,1009.000,977.000,984.000
856.294,957.000,938.000,940.000
863.372,927.000,903.000,908.000
870.441,903.000,891.000,914.000
877.508,904.000,906.000,882.000
884.566,873.000,898.000,898.000
891.621,897.000,901.000,870.000
898.671,873.000,886.000,876.000
905.713,886.000,893.000,885.000
912.751,892.000,872.000,879.000
919.782,888.000,854.000,885.000
926.810,874.000,888.000,888.000
933.830,888.000,873.000,863.000
940.846,891.000,866.000,877.000
947.857,886.000,868.000,889.000
954.860,907.000,882.000,864.000
961.860,914.000,900.000,901.000
968.853,900.000,901.000,899.000
975.841,882.000,890.000,879.000
982.825,879.000,881.000,896.000
989.801,873.000,860.000,851.000
996.773,876.000,865.000,887.000
1003.738,879.000,872.000,896.000
1010.700,895.000,885.000,888.000
1017.654,908.000,899.000,909.000
1024.605,919.000,922.000,906.000
1031.550,933.000,933.000,919.000
1038.488,944.000,947.000,2576.000
1045.422,925.000,932.000,893.000
1052.349,910.000,939.000,934.000
1059.273,927.000,940.000,940.000
1066.189,924.000,932.000,921.000
1073.102,941.000,923.000,935.000
1080.009,916.000,906.000,892.000
1086.909,899.000,891.000,892.000
1093.806,885.000,879.000,884.000
1100.695,865.000,864.000,865.000
1107.581,887.000,846.000,878.000
1114.462,843.000,851.000,862.000
1121.335,867.000,867.000,852.000
1128.205,860.000,870.000,878.000
1135.067,873.000,876.000,863.000
1141.927,873.000,867.000,866.000
1148.779,859.000,876.000,860.000
1155.627,880.000,863.000,854.000
1162.470,875.000,878.000,866.000
1169.306,871.000,897.000,872.000
1176.139,887.000,881.000,868.000
1182.964,864.000,854.000,866.000
1189.786,882.000,877.000,865.000
1196.601,880.000,874.000,877.000
1203.413,867.000,860.000,857.000
1210.219,867.000,879.000,855.000
1217.018,851.000,859.000,853.000
1223.814,878.000,843.000,855.000
1230.602,867.000,852.000,868.000
1237.387,859.000,863.000,845.000
1244.166,862.000,825.000,823.000
1250.940,810.000,822.000,823.000
1257.710,844.000,822.000,826.000
1264.472,830.000,826.000,823.000
1271.231,825.000,827.000,817.000
1277.983,825.000,821.000,799.000
1284.732,815.000,814.000,805.000
1291.473,809.000,834.000,812.000
1298.212,808.000,830.000,820.000
1304.945,819.000,854.000,813.000
1311.671,815.000,811.000,825.000
1318.393,826.000,823.000,780.000
1325.109,820.000,802.000,815.000
1331.822,827.000,1194.000,806.000
1338.529,813.000,816.000,815.000
1345.229,828.000,830.000,802.000
1351.926,805.000,798.000,808.000
1358.616,817.000,812.000,811.000
1365.303,826.000,817.000,829.000
1371.982,818.000,809.000,810.000
1378.659,817.000,820.000,802.000
1385.330,837.000,817.000,813.000
1391.994,811.000,802.000,823.000
1398.656,816.000,806.000,806.000
1405.310,834.000,822.000,823.000
1411.961,834.000,820.000,807.000
1418.605,838.000,822.000,806.000
1425.245,828.000,832.000,818.000
1431.881,822.000,821.000,817.000
1438.510,838.000,828.000,821.000
1445.135,824.000,821.000,814.000
1451.754,825.000,821.000,825.000
1458.370,838.000,814.000,822.000
1464.980,812.000,814.000,833.000
1471.583,827.000,807.000,814.000
1478.184,835.000,813.000,805.000
1484.777,827.000,823.000,821.000
1491.368,828.000,823.000,824.000
1497.951,825.000,842.000,831.000
1504.531,843.000,823.000,825.000
1511.107,839.000,823.000,826.000
1517.675,843.000,824.000,826.000
1524.240,845.000,841.000,831.000
1530.799,843.000,830.000,824.000
1537.354,820.000,842.000,828.000
1543.903,866.000,874.000,856.000
1550.448,839.000,829.000,843.000
1556.988,849.000,832.000,839.000
1563.522,855.000,839.000,839.000
1570.052,855.000,851.000,860.000
1576.576,849.000,855.000,842.000
1583.097,840.000,827.000,840.000
1589.612,862.000,847.000,846.000
1596.121,859.000,835.000,838.000
1602.627,854.000,848.000,836.000
1609.126,849.000,850.000,840.000
1615.622,851.000,845.000,837.000
1622.112,847.000,856.000,832.000
1628.598,835.000,850.000,838.000
1635.079,850.000,844.000,831.000
1641.554,829.000,834.000,823.000
1648.025,839.000,835.000,830.000
1654.490,857.000,832.000,832.000
1660.952,860.000,837.000,830.000
1667.407,831.000,824.000,810.000
1673.859,844.000,831.000,848.000
1680.306,831.000,828.000,817.000
1686.746,846.000,828.000,831.000
1693.184,820.000,823.000,836.000
1699.615,830.000,833.000,838.000
1706.042,841.000,840.000,818.000
1712.465,843.000,835.000,825.000
1718.882,842.000,845.000,837.000
1725.295,822.000,831.000,799.000
1731.702,834.000,819.000,831.000
1738.105,843.000,832.000,814.000
1744.502,833.000,834.000,847.000
1750.897,847.000,836.000,838.000
1757.284,846.000,839.000,848.000
1763.669,840.000,839.000,813.000
1770.048,830.000,827.000,840.000
1776.421,855.000,845.000,844.000
1782.792,843.000,825.000,816.000
1789.155,826.000,823.000,817.000
1795.516,853.000,840.000,846.000
1801.872,839.000,866.000,869.000
1808.221,847.000,861.000,858.000
1814.567,852.000,863.000,863.000
1820.907,866.000,869.000,877.000
1825.661,892.000,876.000,866.000