Folder: Data/Raman/Silica (part 121)

File: 2025_09_12_12pct_Hydrated_SiO2_Glass_on_DAC_Culet_50X_532nm_74mW_Andor750_600gv_3400wn_3accum_30s_DePol_Loc5_DAC2.csv
2654.492,869.000,843.000,820.000
2660.180,871.000,840.000,847.000
2665.866,868.000,849.000,837.000
2671.545,871.000,849.000,837.000
2677.221,855.000,850.000,843.000
2682.894,865.000,857.000,854.000
2688.562,864.000,856.000,841.000
2694.227,856.000,856.000,857.000
2699.886,858.000,842.000,834.000
2705.543,868.000,852.000,836.000
2711.196,854.000,870.000,831.000
2716.844,864.000,5468.000,857.000
2722.488,863.000,860.000,838.000
2728.129,859.000,843.000,848.000
2733.765,848.000,857.000,843.000
2739.399,880.000,880.000,847.000
2745.027,856.000,857.000,843.000
2750.650,853.000,860.000,835.000
2756.272,866.000,838.000,837.000
2761.889,850.000,842.000,842.000
2767.503,864.000,850.000,859.000
2773.111,854.000,859.000,840.000
2778.716,874.000,835.000,829.000
2784.316,842.000,850.000,845.000
2789.915,846.000,859.000,832.000
2795.507,855.000,851.000,855.000
2801.098,845.000,841.000,838.000
2806.682,845.000,851.000,839.000
2812.264,859.000,847.000,857.000
2817.842,866.000,851.000,851.000
2823.416,861.000,834.000,833.000
2828.986,843.000,853.000,835.000
2834.551,854.000,855.000,866.000
2840.113,860.000,859.000,831.000
2845.672,859.000,860.000,832.000
2851.227,838.000,851.000,824.000
2856.776,853.000,846.000,842.000
2862.323,882.000,864.000,842.000
2867.867,859.000,856.000,840.000
2873.406,867.000,866.000,851.000
2878.941,857.000,841.000,868.000
2884.471,847.000,865.000,855.000
2889.998,853.000,871.000,852.000
2895.522,847.000,858.000,857.000
2901.043,906.000,874.000,862.000
2906.558,909.000,881.000,886.000
2912.069,912.000,914.000,881.000
2917.578,949.000,935.000,957.000
2923.083,961.000,936.000,927.000
2928.584,922.000,900.000,885.000
2934.081,879.000,880.000,898.000
2939.573,880.000,896.000,887.000
2945.063,856.000,858.000,865.000
2950.548,866.000,861.000,857.000
2956.030,887.000,867.000,879.000
2961.509,890.000,885.000,865.000
2966.981,894.000,884.000,879.000
2972.452,889.000,892.000,898.000
2977.919,900.000,880.000,892.000
2983.382,875.000,895.000,882.000
2988.840,887.000,853.000,864.000
2994.295,887.000,867.000,846.000
2999.746,881.000,872.000,857.000
3005.195,875.000,867.000,886.000
3010.638,883.000,859.000,854.000
3016.077,886.000,865.000,865.000
3021.514,905.000,871.000,884.000
3026.947,880.000,893.000,864.000
3032.377,885.000,887.000,885.000
3037.801,887.000,875.000,887.000
3043.222,894.000,903.000,888.000
3048.640,897.000,884.000,868.000
3054.054,884.000,872.000,874.000
3059.465,895.000,883.000,879.000
3064.872,905.000,887.000,879.000
3070.273,912.000,896.000,893.000
3075.673,910.000,887.000,903.000
3081.068,901.000,887.000,872.000
3086.461,906.000,907.000,909.000
3091.847,908.000,908.000,880.000
3097.231,896.000,903.000,899.000
3102.613,914.000,925.000,887.000
3107.991,900.000,914.000,911.000
3113.363,897.000,922.000,901.000
3118.732,925.000,908.000,893.000
3124.098,915.000,905.000,922.000
3129.461,935.000,913.000,908.000
3134.820,938.000,926.000,896.000
3140.175,938.000,932.000,896.000
3145.525,936.000,908.000,921.000
3150.873,934.000,928.000,931.000
3156.217,958.000,951.000,943.000
3161.558,947.000,938.000,957.000
3166.894,947.000,943.000,943.000
3172.226,963.000,945.000,941.000
3177.556,972.000,961.000,942.000
3182.882,944.000,951.000,941.000
3188.204,958.000,954.000,949.000
3193.522,967.000,949.000,970.000
3198.836,980.000,951.000,978.000
3204.148,965.000,979.000,973.000
3209.456,967.000,1001.000,952.000
3214.761,1007.000,972.000,973.000
3220.060,978.000,956.000,981.000
3225.357,997.000,980.000,970.000
3230.650,991.000,979.000,986.000
3235.940,985.000,1001.000,974.000
3241.227,999.000,977.000,996.000
3246.507,986.000,989.000,1000.000
3251.787,987.000,972.000,983.000
3257.063,1010.000,999.000,982.000
3262.334,1009.000,1018.000,995.000
3267.603,991.000,1009.000,1023.000
3272.866,995.000,1004.000,1004.000
3278.127,1033.000,1019.000,989.000
3283.385,1006.000,997.000,979.000
3288.639,1009.000,1014.000,1002.000
3293.890,1033.000,1019.000,991.000
3299.135,1015.000,1041.000,1004.000
3304.379,1045.000,1025.000,1019.000
3309.618,1026.000,1049.000,1014.000
3314.855,1034.000,1008.000,1022.000
3320.087,1063.000,1026.000,1026.000
3325.316,1048.000,1021.000,1030.000
3330.542,1061.000,1064.000,1048.000
3335.763,1055.000,1049.000,1059.000
3340.982,1047.000,1051.000,1048.000
3346.196,1064.000,1062.000,1027.000
3351.408,1069.000,1051.000,1054.000
3356.615,1080.000,1046.000,1050.000
3361.820,1077.000,1062.000,1070.000
3367.022,1092.000,1096.000,1037.000
3372.217,1096.000,1069.000,1077.000
3377.412,1075.000,1102.000,1073.000
3382.603,1111.000,1094.000,1077.000
3387.789,1088.000,1080.000,1095.000
3392.973,1113.000,1078.000,1111.000
3398.152,1093.000,1111.000,1099.000
3403.328,1096.000,1108.000,1092.000
3408.502,1089.000,1101.000,1113.000
3413.672,1136.000,1103.000,1113.000
3418.838,1110.000,1112.000,1132.000
3423.999,1112.000,1098.000,1127.000
3429.158,1125.000,1112.000,1089.000
3434.314,1151.000,1110.000,1111.000
3439.467,1087.000,1109.000,1103.000
3444.614,1145.000,1121.000,1120.000
3449.759,1154.000,1122.000,1115.000
3454.901,1118.000,1159.000,1114.000
3460.040,1127.000,1106.000,1112.000
3465.175,1164.000,1124.000,1121.000
3470.305,1141.000,1108.000,1124.000
3475.433,1133.000,1136.000,1157.000
3480.559,1130.000,1114.000,1130.000
3485.680,1127.000,1150.000,1103.000
3490.798,1130.000,1104.000,1133.000
3495.911,1125.000,1105.000,1106.000
3501.023,1147.000,1110.000,1121.000
3506.130,1134.000,1122.000,1083.000
3511.235,1136.000,1141.000,1080.000
3516.336,1123.000,1112.000,1085.000
3521.431,1119.000,1112.000,1115.000
3526.526,1102.000,1102.000,1099.000
3531.617,1115.000,1111.000,1101.000
3536.704,1079.000,1085.000,1096.000
3541.787,1109.000,1091.000,1099.000
3546.867,1105.000,1091.000,1088.000
3551.944,1108.000,1103.000,1098.000
3557.017,1078.000,1096.000,1076.000
3562.088,1100.000,1087.000,1083.000
3567.154,1095.000,1098.000,1096.000
3572.218,1110.000,1108.000,1103.000
3577.278,1112.000,1087.000,1108.000
3582.335,1110.000,1121.000,1116.000
3587.389,1124.000,1098.000,1088.000
3592.437,1138.000,1115.000,1091.000
3597.484,1111.000,1123.000,1089.000
3602.528,1096.000,1085.000,1104.000
3607.568,1087.000,1059.000,1055.000
3612.604,1080.000,1052.000,1059.000
3617.637,1083.000,1059.000,1043.000
3622.667,1072.000,1067.000,1036.000
3627.694,1045.000,1051.000,1063.000
3632.718,1055.000,1022.000,1037.000
3637.736,1048.000,1036.000,1033.000
3642.753,1054.000,1058.000,1023.000
3647.767,1037.000,1056.000,1026.000
3652.777,1045.000,1046.000,1000.000
3657.784,1021.000,1038.000,1023.000
3662.786,1008.000,1003.000,1012.000
3667.786,1023.000,993.000,1000.000
3672.783,976.000,952.000,954.000
3677.777,961.000,949.000,944.000
3682.767,954.000,954.000,916.000
3687.753,902.000,904.000,891.000
3692.737,882.000,883.000,875.000
3697.717,871.000,856.000,861.000
3702.695,851.000,831.000,841.000
3707.668,835.000,821.000,819.000
3712.638,826.000,833.000,827.000
3717.605,816.000,814.000,809.000
3722.569,799.000,812.000,792.000
3727.531,823.000,808.000,799.000
3732.487,806.000,794.000,782.000
3737.441,808.000,784.000,802.000
3742.392,795.000,793.000,788.000
3747.340,792.000,798.000,778.000
3752.284,803.000,782.000,783.000
3757.226,803.000,803.000,777.000
3762.162,801.000,801.000,783.000
3767.097,788.000,782.000,758.000
3772.029,785.000,785.000,775.000
3776.957,789.000,767.000,789.000
3781.882,788.000,791.000,773.000
3786.803,802.000,782.000,760.000
3791.722,779.000,777.000,783.000
3796.637,787.000,780.000,762.000
3801.550,776.000,779.000,777.000
3806.457,775.000,791.000,760.000
3811.363,767.000,773.000,781.000
3816.266,792.000,789.000,772.000
3821.165,764.000,766.000,768.000
3826.061,771.000,766.000,767.000
3830.953,779.000,780.000,770.000
3835.842,784.000,776.000,776.000
3840.730,786.000,780.000,770.000
3845.613,777.000,772.000,768.000
3850.493,776.000,770.000,771.000
3855.369,769.000,771.000,766.000
3860.243,784.000,771.000,765.000
3865.113,773.000,776.000,760.000
3869.981,778.000,777.000,771.000
3874.844,772.000,769.000,775.000
3879.705,790.000,766.000,754.000
3884.563,770.000,771.000,766.000
3889.418,777.000,778.000,773.000
3894.269,780.000,782.000,763.000
3899.117,775.000,786.000,763.000
3903.962,777.000,780.000,767.000
3908.805,788.000,767.000,769.000
3913.643,780.000,768.000,774.000
3918.479,775.000,783.000,764.000
3923.311,769.000,768.000,771.000
3928.140,777.000,762.000,771.000
3932.967,768.000,756.000,758.000
3937.791,767.000,767.000,770.000
3942.610,786.000,777.000,759.000
3947.427,776.000,764.000,768.000
3952.240,780.000,788.000,765.000
3957.052,778.000,771.000,767.000
3961.859,781.000,773.000,763.000
3966.662,778.000,771.000,765.000
3971.464,779.000,767.000,771.000
3976.263,772.000,779.000,765.000
3981.058,781.000,777.000,769.000
3985.849,783.000,790.000,778.000
3989.441,794.000,790.000,790.000

File: 2025_09_12_12pct_Hydrated_SiO2_Glass_on_DAC_Culet_50X_532nm_74mW_Andor750_600gv_3400wn_3accum_30s_Pol_Loc2.csv
2654.492,813.000,805.000,805.000
2660.180,819.000,810.000,832.000
2665.866,832.000,826.000,818.000
2671.545,840.000,822.000,836.000
2677.221,837.000,831.000,834.000
2682.894,819.000,829.000,824.000
2688.562,818.000,821.000,816.000
2694.227,809.000,799.000,818.000
2699.886,799.000,812.000,816.000
2705.543,812.000,806.000,795.000
2711.196,828.000,800.000,792.000
2716.844,828.000,797.000,817.000
2722.488,813.000,816.000,826.000
2728.129,810.000,808.000,810.000
2733.765,809.000,813.000,815.000
2739.399,815.000,792.000,824.000
2745.027,798.000,814.000,805.000
2750.650,800.000,824.000,814.000
2756.272,815.000,806.000,814.000
2761.889,820.000,816.000,807.000
2767.503,819.000,812.000,803.000
2773.111,820.000,822.000,808.000
2778.716,829.000,828.000,812.000
2784.316,818.000,833.000,825.000
2789.915,805.000,827.000,822.000
2795.507,848.000,818.000,818.000
2801.098,837.000,827.000,832.000
2806.682,840.000,839.000,825.000
2812.264,843.000,826.000,843.000
2817.842,831.000,820.000,836.000
2823.416,846.000,843.000,836.000
2828.986,835.000,835.000,835.000
2834.551,819.000,851.000,843.000
2840.113,842.000,831.000,847.000
2845.672,844.000,853.000,831.000
2851.227,862.000,847.000,850.000
2856.776,875.000,872.000,858.000
2862.323,891.000,891.000,867.000
2867.867,872.000,884.000,887.000
2873.406,871.000,883.000,871.000
2878.941,868.000,866.000,886.000
2884.471,898.000,879.000,902.000
2889.998,887.000,901.000,901.000
2895.522,915.000,926.000,908.000
2901.043,936.000,949.000,936.000
2906.558,985.000,990.000,982.000
2912.069,1032.000,1022.000,1049.000
2917.578,1063.000,1097.000,1047.000
2923.083,1024.000,1020.000,1021.000
2928.584,978.000,996.000,1010.000
2934.081,965.000,971.000,957.000
2939.573,968.000,942.000,954.000
2945.063,933.000,945.000,948.000
2950.548,932.000,931.000,949.000
2956.030,939.000,943.000,939.000
2961.509,944.000,927.000,939.000
2966.981,957.000,954.000,972.000
2972.452,977.000,971.000,968.000
2977.919,979.000,951.000,978.000
2983.382,976.000,979.000,976.000
2988.840,978.000,966.000,967.000
2994.295,950.000,951.000,963.000
2999.746,969.000,960.000,963.000
3005.195,972.000,971.000,982.000
3010.638,989.000,979.000,974.000
3016.077,978.000,991.000,1007.000
3021.514,988.000,1006.000,1002.000
3026.947,1000.000,1002.000,1011.000
3032.377,1022.000,1013.000,1020.000
3037.801,1013.000,1009.000,1023.000
3043.222,1045.000,1018.000,1016.000
3048.640,1049.000,1043.000,1035.000
3054.054,1048.000,1070.000,1043.000
3059.465,1036.000,1050.000,1055.000
3064.872,1064.000,1076.000,1079.000
3070.273,1071.000,1068.000,1089.000
3075.673,1093.000,1106.000,1079.000
3081.068,1111.000,1103.000,1105.000
3086.461,1134.000,1097.000,1165.000
3091.847,1125.000,1131.000,1112.000
3097.231,1175.000,1143.000,1154.000
3102.613,1160.000,1162.000,1182.000
3107.991,1183.000,1176.000,1198.000
3113.363,1206.000,1196.000,1220.000
3118.732,1183.000,1230.000,1214.000
3124.098,1234.000,1230.000,1242.000
3129.461,1259.000,1258.000,1260.000
3134.820,1253.000,1273.000,1279.000
3140.175,1270.000,1269.000,1292.000
3145.525,1289.000,1307.000,1291.000
3150.873,1311.000,1347.000,1292.000
3156.217,1337.000,1294.000,1335.000
3161.558,1367.000,1362.000,1363.000
3166.894,1371.000,1360.000,1341.000
3172.226,1391.000,1401.000,1405.000
3177.556,1415.000,1424.000,1375.000
3182.882,1407.000,1438.000,1432.000
3188.204,1468.000,1439.000,1412.000
3193.522,1447.000,1476.000,1467.000
3198.836,1486.000,1482.000,1504.000
3204.148,1530.000,1476.000,1492.000
3209.456,1486.000,1507.000,1532.000
3214.761,1470.000,1544.000,1517.000
3220.060,1556.000,1505.000,1531.000
3225.357,1527.000,1579.000,1523.000
3230.650,1571.000,1562.000,1554.000
3235.940,1570.000,1536.000,1561.000
3241.227,1583.000,1567.000,1585.000
3246.507,1562.000,1519.000,1555.000
3251.787,1601.000,1575.000,1571.000
3257.063,1556.000,1577.000,1592.000
3262.334,1571.000,1578.000,1550.000
3267.603,1604.000,1604.000,1602.000
3272.866,1620.000,1633.000,1576.000
3278.127,1648.000,1586.000,1608.000
3283.385,1632.000,1624.000,1593.000
3288.639,1609.000,1601.000,1619.000
3293.890,1633.000,1655.000,1651.000
3299.135,1605.000,1604.000,1630.000
3304.379,1671.000,1617.000,1613.000
3309.618,1645.000,1646.000,1633.000
3314.855,1659.000,1617.000,1644.000
3320.087,1631.000,1649.000,1656.000
3325.316,1664.000,1651.000,1663.000
3330.542,1666.000,1706.000,1664.000
3335.763,1677.000,1671.000,1727.000
3340.982,1706.000,1722.000,1723.000
3346.196,1718.000,1706.000,1727.000
3351.408,1720.000,1718.000,1758.000
3356.615,1721.000,1709.000,1722.000
3361.820,1748.000,1738.000,1729.000
3367.022,1759.000,1708.000,1723.000
3372.217,1746.000,1702.000,1733.000
3377.412,1755.000,1795.000,1739.000
3382.603,1797.000,1819.000,1791.000
3387.789,1805.000,1774.000,1778.000
3392.973,1824.000,1801.000,1852.000
3398.152,1790.000,1768.000,1771.000
3403.328,1815.000,1780.000,1804.000
3408.502,1791.000,1806.000,1806.000
3413.672,1792.000,1833.000,1828.000
3418.838,1796.000,1808.000,1823.000
3423.999,1821.000,1802.000,1850.000
3429.158,1815.000,1833.000,1813.000
3434.314,1826.000,1818.000,1835.000
3439.467,1781.000,1795.000,1831.000
3444.614,1781.000,1806.000,1797.000
3449.759,1807.000,1781.000,1818.000
3454.901,1799.000,1791.000,1796.000
3460.040,1800.000,1765.000,1823.000
3465.175,1794.000,1782.000,1780.000
3470.305,1776.000,1790.000,1768.000
3475.433,1738.000,1762.000,1748.000
3480.559,1759.000,1735.000,1771.000
3485.680,1746.000,1756.000,1726.000
3490.798,1766.000,1710.000,1724.000
3495.911,1761.000,1727.000,1743.000
3501.023,1713.000,1744.000,1713.000
3506.130,1717.000,1720.000,1729.000
3511.235,1696.000,1702.000,1681.000
3516.336,1695.000,1705.000,1682.000
3521.431,1709.000,1729.000,1680.000
3526.526,1675.000,1676.000,1695.000
3531.617,1695.000,1672.000,1668.000
3536.704,1688.000,1693.000,1700.000
3541.787,1713.000,1642.000,1655.000
3546.867,1684.000,1662.000,1627.000
3551.944,1619.000,1654.000,1645.000
3557.017,1668.000,1651.000,1673.000
3562.088,1689.000,1701.000,1648.000
3567.154,1665.000,1676.000,1659.000
3572.218,1725.000,1693.000,1689.000
3577.278,1705.000,1684.000,1735.000
3582.335,1772.000,1733.000,1734.000
3587.389,1735.000,1743.000,1740.000
3592.437,1766.000,1761.000,1753.000
3597.484,1746.000,1772.000,1779.000
3602.528,1763.000,1791.000,1761.000
3607.568,1687.000,1652.000,1657.000
3612.604,1616.000,1606.000,1636.000
3617.637,1557.000,1563.000,1564.000
3622.667,1541.000,1554.000,1539.000
3627.694,1526.000,1512.000,1515.000
3632.718,1516.000,1519.000,1493.000
3637.736,1508.000,1526.000,1503.000
3642.753,1512.000,1492.000,1517.000
3647.767,1475.000,1459.000,1475.000
3652.777,1485.000,1475.000,1459.000
3657.784,1461.000,1437.000,1469.000
3662.786,1407.000,1423.000,1443.000
3667.786,1393.000,1373.000,1373.000
3672.783,1333.000,1351.000,1310.000
3677.777,1230.000,1283.000,1254.000
3682.767,1192.000,1222.000,1196.000
3687.753,1138.000,1128.000,1115.000
3692.737,1064.000,1079.000,1085.000
3697.717,1001.000,1020.000,1008.000
3702.695,971.000,958.000,986.000
3707.668,925.000,935.000,924.000
3712.638,909.000,912.000,896.000
3717.605,888.000,875.000,887.000
3722.569,877.000,869.000,865.000
3727.531,855.000,851.000,834.000
3732.487,849.000,842.000,836.000
3737.441,846.000,840.000,860.000
3742.392,837.000,822.000,829.000
3747.340,830.000,827.000,823.000
3752.284,817.000,801.000,828.000
3757.226,806.000,817.000,801.000
3762.162,814.000,809.000,817.000
3767.097,817.000,813.000,808.000
3772.029,809.000,812.000,789.000
3776.957,809.000,810.000,812.000
3781.882,811.000,814.000,801.000
3786.803,801.000,783.000,804.000
3791.722,813.000,794.000,795.000
3796.637,797.000,801.000,808.000
3801.550,793.000,791.000,782.000
3806.457,796.000,798.000,801.000
3811.363,794.000,803.000,787.000
3816.266,802.000,792.000,800.000
3821.165,809.000,794.000,785.000
3826.061,794.000,794.000,785.000
3830.953,788.000,796.000,796.000
3835.842,786.000,795.000,788.000
3840.730,795.000,792.000,803.000
3845.613,787.000,790.000,799.000
3850.493,778.000,789.000,794.000
3855.369,794.000,791.000,792.000
3860.243,795.000,772.000,794.000
3865.113,778.000,801.000,796.000
3869.981,795.000,789.000,788.000
3874.844,781.000,785.000,788.000
3879.705,772.000,803.000,784.000
3884.563,798.000,776.000,775.000
3889.418,776.000,791.000,782.000
3894.269,788.000,788.000,784.000
3899.117,773.000,801.000,786.000
3903.962,777.000,789.000,794.000
3908.805,768.000,774.000,784.000
3913.643,767.000,807.000,779.000
3918.479,790.000,776.000,776.000
3923.311,796.000,775.000,767.000
3928.140,786.000,796.000,780.000
3932.967,782.000,788.000,784.000
3937.791,780.000,785.000,801.000
3942.610,785.000,785.000,792.000
3947.427,774.000,790.000,775.000
3952.240,781.000,783.000,785.000
3957.052,789.000,778.000,768.000
3961.859,778.000,781.000,785.000
3966.662,771.000,805.000,784.000
3971.464,804.000,782.000,781.000
3976.263,800.000,778.000,777.000
3981.058,792.000,802.000,789.000
3985.849,790.000,812.000,798.000
3989.441,805.000,806.000,802.000