Folder: Data/Raman/Silica (part 47)

File: 2025_08_22_Nat_SiO2_Glass_XRD_50X_532nm_6mW_Andor750_600gv_1030wn_3accum_30s_UnPol.csv
23.130,983.000,991.000,993.000
30.879,895.000,904.000,906.000
38.619,1013.000,987.000,1003.000
46.355,1120.000,1107.000,1086.000
54.083,1147.000,1160.000,1131.000
61.807,1162.000,1156.000,1164.000
69.523,1190.000,1187.000,1173.000
77.233,1166.000,1174.000,1181.000
84.936,1162.000,1152.000,1146.000
92.632,1168.000,1173.000,1174.000
100.323,1168.000,1146.000,1130.000
108.007,1086.000,1111.000,1126.000
115.685,1136.000,1137.000,1098.000
123.359,1101.000,1081.000,1102.000
131.024,1076.000,1078.000,1098.000
138.683,1080.000,1110.000,1060.000
146.335,1071.000,1075.000,1065.000
153.982,1038.000,1040.000,1087.000
161.621,1065.000,1033.000,1064.000
169.256,1057.000,1053.000,1027.000
176.883,1029.000,1060.000,1057.000
184.504,1035.000,1023.000,1030.000
192.122,1035.000,1025.000,1041.000
199.731,1055.000,1046.000,1049.000
207.333,1048.000,1044.000,1023.000
214.929,1074.000,1057.000,1047.000
222.519,1042.000,1074.000,1045.000
230.104,1040.000,1087.000,1063.000
237.681,1078.000,1115.000,1100.000
245.253,1094.000,1088.000,1062.000
252.819,1095.000,1111.000,1104.000
260.380,1145.000,1130.000,1116.000
267.933,1112.000,1102.000,1124.000
275.480,1158.000,1162.000,1144.000
283.021,1162.000,1162.000,1157.000
290.556,1195.000,1174.000,1171.000
298.084,1216.000,1191.000,1179.000
305.607,1241.000,1230.000,1216.000
313.123,1222.000,1219.000,1219.000
320.635,1221.000,1219.000,1210.000
328.139,1254.000,1247.000,1281.000
335.638,1288.000,1269.000,1228.000
343.130,1286.000,1265.000,1245.000
350.616,1287.000,1308.000,1283.000
358.095,1277.000,1289.000,1311.000
365.569,1346.000,1336.000,1304.000
373.037,1342.000,1351.000,1328.000
380.498,1370.000,1339.000,1335.000
387.956,1371.000,1378.000,1347.000
395.405,1397.000,1388.000,1382.000
402.849,1380.000,1391.000,1372.000
410.287,1438.000,1480.000,1376.000
417.719,1423.000,1403.000,1442.000
425.144,1404.000,1442.000,1433.000
432.563,1450.000,1439.000,1421.000
439.977,1421.000,1415.000,1426.000
447.386,1430.000,1421.000,1404.000
454.788,1433.000,1434.000,1375.000
462.183,1422.000,1438.000,1423.000
469.574,1386.000,1390.000,1349.000
476.957,1366.000,1381.000,1316.000
484.335,1327.000,1357.000,1334.000
491.706,1407.000,1388.000,1359.000
499.072,1367.000,1359.000,1353.000
506.432,1255.000,1239.000,1223.000
513.788,1131.000,1123.000,1106.000
521.136,1006.000,1018.000,1026.000
528.479,975.000,963.000,938.000
535.815,933.000,940.000,913.000
543.145,901.000,882.000,873.000
550.469,883.000,870.000,867.000
557.788,883.000,856.000,855.000
565.100,871.000,856.000,855.000
572.408,861.000,860.000,838.000
579.711,860.000,842.000,845.000
587.006,845.000,843.000,839.000
594.295,854.000,847.000,855.000
601.579,871.000,875.000,880.000
608.856,885.000,859.000,865.000
616.129,853.000,844.000,849.000
623.394,837.000,825.000,825.000
630.655,824.000,814.000,793.000
637.911,804.000,809.000,776.000
645.160,797.000,795.000,786.000
652.403,802.000,785.000,778.000
659.640,782.000,791.000,768.000
666.872,780.000,779.000,790.000
674.097,779.000,775.000,781.000
681.317,770.000,775.000,764.000
688.531,783.000,776.000,773.000
695.739,789.000,756.000,769.000
702.944,781.000,764.000,765.000
710.141,793.000,776.000,773.000
717.332,777.000,768.000,764.000
724.517,788.000,775.000,772.000
731.697,776.000,787.000,758.000
738.871,793.000,774.000,776.000
746.039,795.000,766.000,780.000
753.202,811.000,796.000,767.000
760.360,788.000,784.000,769.000
767.512,786.000,792.000,795.000
774.657,844.000,814.000,809.000
781.797,855.000,847.000,855.000
788.932,902.000,852.000,859.000
796.060,908.000,873.000,883.000
803.184,890.000,902.000,862.000
810.301,871.000,861.000,848.000
817.413,860.000,873.000,875.000
824.520,870.000,856.000,845.000
831.622,850.000,844.000,838.000
838.716,850.000,823.000,826.000
845.806,828.000,807.000,819.000
852.890,799.000,800.000,797.000
859.968,785.000,786.000,785.000
867.040,788.000,773.000,767.000
874.106,784.000,780.000,751.000
881.168,768.000,766.000,756.000
888.226,775.000,780.000,767.000
895.276,771.000,763.000,755.000
902.321,769.000,750.000,756.000
909.360,779.000,761.000,764.000
916.393,764.000,756.000,762.000
923.422,762.000,765.000,782.000
930.444,771.000,766.000,761.000
937.461,770.000,747.000,761.000
944.475,770.000,754.000,767.000
951.481,764.000,760.000,755.000
958.482,772.000,765.000,758.000
965.476,790.000,771.000,757.000
972.466,770.000,766.000,762.000
979.451,768.000,775.000,765.000
986.428,768.000,757.000,757.000
993.402,756.000,750.000,765.000
1000.369,763.000,764.000,758.000
1007.333,788.000,765.000,751.000
1014.290,776.000,777.000,766.000
1021.241,779.000,776.000,786.000
1028.188,794.000,783.000,755.000
1035.128,806.000,787.000,783.000
1042.063,799.000,795.000,776.000
1048.994,804.000,799.000,802.000
1055.917,825.000,807.000,803.000
1062.838,813.000,797.000,811.000
1069.752,822.000,810.000,802.000
1076.660,812.000,801.000,791.000
1083.562,808.000,805.000,809.000
1090.460,802.000,789.000,794.000
1097.351,799.000,799.000,777.000
1104.238,795.000,767.000,767.000
1111.120,795.000,767.000,757.000
1117.995,779.000,769.000,769.000
1124.867,779.000,779.000,751.000
1131.733,786.000,779.000,768.000
1138.593,789.000,779.000,760.000
1145.447,793.000,785.000,767.000
1152.297,787.000,767.000,774.000
1159.141,799.000,783.000,781.000
1165.979,793.000,780.000,762.000
1172.813,802.000,794.000,785.000
1179.641,804.000,797.000,786.000
1186.465,792.000,785.000,780.000
1193.282,786.000,791.000,782.000
1200.095,795.000,789.000,779.000
1206.902,797.000,807.000,780.000
1213.703,802.000,788.000,775.000
1220.499,788.000,768.000,774.000
1227.291,780.000,781.000,770.000
1234.076,795.000,781.000,773.000
1240.858,792.000,763.000,765.000
1247.634,786.000,763.000,772.000
1254.405,780.000,765.000,759.000
1261.170,784.000,759.000,757.000
1267.929,806.000,769.000,757.000
1274.683,792.000,763.000,773.000
1281.433,779.000,762.000,766.000
1288.177,779.000,763.000,763.000
1294.916,786.000,756.000,745.000
1301.652,769.000,771.000,759.000
1308.380,773.000,777.000,758.000
1315.104,771.000,758.000,757.000
1321.822,783.000,762.000,765.000
1328.535,759.000,763.000,767.000
1335.243,769.000,766.000,761.000
1341.946,785.000,770.000,764.000
1348.643,771.000,748.000,755.000
1355.337,790.000,765.000,747.000
1362.025,790.000,767.000,756.000
1368.707,772.000,756.000,766.000
1375.384,787.000,772.000,750.000
1382.057,783.000,758.000,755.000
1388.723,780.000,785.000,758.000
1395.385,778.000,764.000,760.000
1402.042,778.000,767.000,764.000
1408.692,796.000,745.000,766.000
1415.341,771.000,776.000,756.000
1421.982,785.000,782.000,761.000
1428.619,778.000,765.000,757.000
1435.250,776.000,776.000,759.000
1441.877,786.000,766.000,761.000
1448.497,783.000,769.000,760.000
1455.114,779.000,772.000,771.000
1461.725,771.000,757.000,773.000
1468.331,780.000,785.000,761.000
1474.934,788.000,767.000,774.000
1481.530,794.000,760.000,770.000
1488.120,783.000,781.000,775.000
1494.707,800.000,766.000,777.000
1501.287,784.000,790.000,756.000
1507.863,809.000,776.000,780.000
1514.435,796.000,774.000,759.000
1521.001,789.000,779.000,772.000
1527.561,799.000,784.000,772.000
1534.118,791.000,778.000,774.000
1540.670,805.000,769.000,786.000
1547.216,805.000,781.000,789.000
1553.756,803.000,790.000,793.000
1560.293,799.000,786.000,769.000
1566.824,797.000,776.000,776.000
1573.350,784.000,790.000,785.000
1579.872,795.000,804.000,793.000
1586.390,801.000,784.000,794.000
1592.901,796.000,788.000,793.000
1599.408,800.000,781.000,785.000
1605.909,810.000,793.000,783.000
1612.405,802.000,788.000,767.000
1618.898,811.000,779.000,763.000
1625.384,801.000,794.000,787.000
1631.866,807.000,797.000,771.000
1638.345,796.000,785.000,781.000
1644.816,804.000,793.000,788.000
1651.285,800.000,777.000,772.000
1657.747,811.000,796.000,776.000
1664.204,806.000,799.000,793.000
1670.656,795.000,786.000,774.000
1677.104,799.000,797.000,789.000
1683.548,817.000,791.000,764.000
1689.986,811.000,777.000,787.000
1696.420,779.000,796.000,798.000
1702.848,810.000,789.000,790.000
1709.272,815.000,784.000,778.000
1715.691,804.000,798.000,783.000
1722.105,796.000,800.000,779.000
1728.514,786.000,805.000,796.000
1734.918,806.000,788.000,785.000
1741.318,809.000,785.000,784.000
1747.712,798.000,781.000,769.000
1754.104,815.000,791.000,786.000
1760.489,821.000,804.000,771.000
1766.870,810.000,790.000,788.000
1773.245,808.000,794.000,784.000
1779.616,830.000,791.000,784.000
1785.982,806.000,791.000,788.000
1792.343,820.000,800.000,796.000
1798.700,823.000,802.000,812.000
1805.052,815.000,795.000,796.000
1811.400,819.000,811.000,813.000
1816.157,837.000,820.000,794.000

File: 2025_08_22_Nat_SiO2_Glass_XRD_50X_532nm_6mW_Kymera328_300gv_3000wn_3accum_5s_UnPol_Pos7.csv
-1027.971,3048.000,3051.000,3052.000
-988.527,3052.000,3057.000,3060.000
-949.242,3058.000,3060.000,3071.000
-910.112,3064.000,3059.000,3059.000
-871.134,3068.000,3072.000,3063.000
-832.312,3077.000,3076.000,3073.000
-793.643,3108.000,3087.000,3096.000
-755.126,3110.000,3119.000,3100.000
-716.759,3117.000,3116.000,3114.000
-678.542,3136.000,3116.000,3127.000
-640.479,3144.000,3135.000,3136.000
-602.559,3179.000,3176.000,3171.000
-564.789,3231.000,3217.000,3232.000
-527.164,3296.000,3305.000,3278.000
-489.688,3461.000,3427.000,3418.000
-452.355,3766.000,3742.000,3710.000
-415.165,4018.000,3971.000,3965.000
-378.122,4167.000,4174.000,4179.000
-341.221,4323.000,4299.000,4284.000
-304.460,4404.000,4357.000,4346.000
-267.840,4492.000,4495.000,4423.000
-231.358,4538.000,4564.000,4532.000
-195.022,4692.000,4708.000,4666.000
-158.818,4993.000,4875.000,4882.000
-122.755,5290.000,5222.000,5231.000
-86.827,5813.000,5857.000,5771.000
-51.039,6661.000,6617.000,6595.000
-15.382,9057.000,8977.000,8939.000
20.139,9619.000,9608.000,9646.000
55.524,9448.000,9299.000,9383.000
90.779,9267.000,9162.000,9092.000
125.899,8080.000,8058.000,7948.000
160.890,7603.000,7446.000,7386.000
195.746,7333.000,7109.000,7068.000
230.476,7342.000,7301.000,7172.000
265.077,7776.000,7633.000,7584.000
299.547,8250.000,8169.000,8114.000
333.888,8905.000,8839.000,8739.000
368.102,9571.000,9504.000,9351.000
402.192,10113.000,9923.000,9891.000
436.157,10462.000,10395.000,10265.000
469.991,10444.000,10372.000,10225.000
503.705,9899.000,9692.000,9499.000
537.295,8189.000,7995.000,7881.000
570.762,6437.000,6245.000,6024.000
604.103,5903.000,5635.000,5511.000
637.326,5880.000,5622.000,5379.000
670.426,5525.000,5281.000,5086.000
703.408,5441.000,5147.000,4976.000
736.267,5420.000,5115.000,5014.000
769.008,5572.000,5291.000,5089.000
801.632,6039.000,5658.000,5480.000
834.134,6164.000,5929.000,5669.000
866.524,5914.000,5642.000,5408.000
898.796,5560.000,5230.000,5010.000
930.951,5477.000,5120.000,4899.000
962.991,5487.000,5120.000,4951.000
994.915,5535.000,5139.000,4927.000
1026.727,5606.000,5244.000,5008.000
1058.424,5719.000,5466.000,5168.000
1090.008,5902.000,5589.000,5318.000
1121.480,5856.000,5477.000,5256.000
1152.842,5726.000,5414.000,5128.000
1184.092,5822.000,5394.000,5232.000
1215.230,5863.000,5511.000,5172.000
1246.260,5760.000,5445.000,5173.000
1277.179,5706.000,5380.000,5029.000
1307.992,5635.000,5356.000,4977.000
1338.694,5628.000,5337.000,4968.000
1369.289,5709.000,5303.000,5058.000
1399.779,5663.000,5273.000,5045.000
1430.161,5640.000,5360.000,5068.000
1460.436,5724.000,5287.000,5066.000
1490.606,5705.000,5396.000,5083.000
1520.672,5717.000,5379.000,5101.000
1550.635,5713.000,5366.000,5069.000
1580.490,5751.000,5397.000,5136.000
1610.246,5689.000,5375.000,5126.000
1639.897,5765.000,5350.000,5171.000
1669.446,5624.000,5323.000,5085.000
1698.894,5561.000,5301.000,5041.000
1728.242,5617.000,5222.000,5051.000
1757.489,5508.000,5203.000,5027.000
1786.634,5484.000,5218.000,4952.000
1815.682,5423.000,5119.000,4969.000
1844.629,5437.000,5145.000,4946.000
1873.479,5447.000,5197.000,4936.000
1902.231,5518.000,5112.000,5002.000
1930.883,5456.000,5115.000,4987.000
1959.441,5476.000,5169.000,4971.000
1987.901,5424.000,5204.000,4957.000
2016.264,5505.000,5104.000,4915.000
2044.532,5387.000,5128.000,4997.000
2072.707,5369.000,5124.000,4919.000
2100.785,5390.000,5070.000,4948.000
2128.769,5311.000,5033.000,4955.000
2156.662,5349.000,5088.000,4871.000
2184.459,5363.000,5096.000,4963.000
2212.165,5272.000,5098.000,4915.000
2239.776,5257.000,5056.000,4935.000
2267.299,5270.000,5133.000,4925.000
2294.729,5264.000,5038.000,4877.000
2322.066,5313.000,5081.000,4896.000
2349.315,5355.000,5088.000,5002.000
2376.473,5326.000,5118.000,4914.000
2403.543,5371.000,5137.000,5022.000
2430.521,5246.000,5078.000,4960.000
2457.413,5363.000,5094.000,4975.000
2484.215,5314.000,5122.000,4902.000
2510.932,5320.000,5065.000,4931.000
2537.559,5325.000,5057.000,4954.000
2564.099,5260.000,5072.000,4960.000
2590.555,5336.000,5075.000,4905.000
2616.923,5261.000,5065.000,4871.000
2643.205,5267.000,5073.000,4914.000
2669.403,5268.000,5035.000,4928.000
2695.516,5277.000,5039.000,4880.000
2721.544,5210.000,5011.000,4889.000
2747.486,5240.000,4953.000,4899.000
2773.348,5201.000,4941.000,4872.000
2799.124,5189.000,5004.000,4874.000
2824.821,5162.000,5022.000,4911.000
2850.431,5202.000,5004.000,4837.000
2875.962,5206.000,5038.000,4926.000
2901.412,5229.000,5057.000,4895.000
2926.776,5211.000,5075.000,4946.000
2952.064,5207.000,5045.000,4909.000
2977.269,5196.000,5037.000,4988.000
3002.396,5209.000,5021.000,4907.000
3027.442,5122.000,5006.000,4894.000
3052.408,5189.000,5030.000,4916.000
3077.298,5155.000,5004.000,4917.000
3102.106,5214.000,4976.000,4910.000
3126.837,5184.000,4994.000,4904.000
3151.492,5166.000,5006.000,4908.000
3176.067,5149.000,4975.000,4873.000
3200.565,5134.000,5012.000,4863.000
3224.987,5178.000,5009.000,4922.000
3249.334,5143.000,5005.000,4929.000
3273.603,5142.000,4967.000,4900.000
3297.798,5079.000,4952.000,4918.000
3321.915,5121.000,5004.000,4849.000
3345.960,5154.000,4989.000,4913.000
3369.930,5085.000,5011.000,4899.000
3393.825,5101.000,4938.000,4884.000
3417.645,5064.000,4973.000,4867.000
3441.392,5053.000,4864.000,4815.000
3465.068,5040.000,4922.000,4832.000
3488.670,4955.000,4889.000,4790.000
3512.197,5049.000,4861.000,4800.000
3535.655,4991.000,4868.000,4807.000
3559.039,5033.000,4852.000,4822.000
3582.352,5019.000,4863.000,4883.000
3605.593,5033.000,4874.000,4829.000
3628.765,5036.000,4828.000,4837.000
3651.866,4952.000,4877.000,4897.000
3674.895,4989.000,4847.000,4848.000
3697.857,4949.000,4894.000,4827.000
3720.747,4933.000,4801.000,4721.000
3743.569,4894.000,4793.000,4731.000
3766.319,4906.000,4778.000,4744.000
3789.004,4859.000,4776.000,4722.000
3811.621,4877.000,4744.000,4698.000
3834.167,4814.000,4693.000,4627.000
3856.647,4789.000,4699.000,4675.000
3879.058,4777.000,4715.000,4649.000
3901.404,4776.000,4676.000,4647.000
3923.684,4765.000,4667.000,4653.000
3945.893,4780.000,4674.000,4637.000
3968.038,4717.000,4667.000,4659.000
3990.118,4778.000,4679.000,4601.000
4012.134,4700.000,4605.000,4562.000
4034.080,4710.000,4569.000,4557.000
4055.964,4680.000,4583.000,4543.000
4077.783,4642.000,4609.000,4551.000
4099.536,4628.000,4565.000,4583.000
4121.226,4611.000,4579.000,4520.000
4142.852,4634.000,4601.000,4514.000
4164.415,4618.000,4572.000,4472.000
4185.913,4607.000,4531.000,4490.000
4207.349,4553.000,4491.000,4473.000
4228.723,4527.000,4526.000,4453.000
4250.033,4556.000,4488.000,4436.000
4271.280,4512.000,4451.000,4448.000
4292.468,4476.000,4445.000,4413.000
4313.592,4490.000,4447.000,4411.000
4334.655,4508.000,4404.000,4389.000
4355.657,4475.000,4422.000,4317.000
4376.597,4509.000,4390.000,4379.000
4397.479,4418.000,4384.000,4331.000
4418.300,4418.000,4361.000,4319.000
4439.058,4395.000,4311.000,4292.000
4459.759,4378.000,4346.000,4297.000
4480.399,4323.000,4332.000,4250.000
4500.980,4354.000,4324.000,4250.000
4521.502,4325.000,4238.000,4285.000
4541.965,4299.000,4290.000,4237.000
4562.370,4294.000,4206.000,4172.000
4582.715,4260.000,4232.000,4196.000
4603.004,4270.000,4182.000,4196.000
4623.234,4203.000,4177.000,4155.000
4643.407,4192.000,4149.000,4136.000
4663.522,4168.000,4146.000,4142.000
4683.581,4165.000,4168.000,4104.000
4703.582,4183.000,4115.000,4108.000
4723.528,4148.000,4060.000,4076.000
4743.415,4147.000,4096.000,4090.000
4763.248,4119.000,4048.000,4061.000
4783.024,4090.000,4077.000,4056.000
4802.746,4098.000,4043.000,4044.000
4822.410,4053.000,4023.000,3993.000
4842.021,4040.000,3972.000,4021.000
4861.577,4001.000,3969.000,3946.000
4881.077,4032.000,4004.000,3963.000
4900.523,4003.000,3963.000,3959.000
4919.915,3932.000,3949.000,3981.000
4939.251,3998.000,3930.000,3944.000
4958.537,4000.000,3962.000,3898.000
4977.766,3938.000,3925.000,3895.000
4996.943,3970.000,3952.000,3899.000
5016.067,3950.000,3936.000,3917.000
5035.138,3935.000,3890.000,3911.000
5054.156,3909.000,3895.000,3881.000
5073.122,3891.000,3867.000,3882.000
5092.035,3894.000,3848.000,3823.000
5110.895,3897.000,3835.000,3830.000
5129.704,3862.000,3839.000,3798.000
5148.464,3857.000,3842.000,3817.000
5167.170,3855.000,3825.000,3815.000
5185.825,3810.000,3823.000,3796.000
5204.428,3803.000,3784.000,3788.000
5222.982,3798.000,3762.000,3767.000
5241.485,3808.000,3782.000,3756.000
5259.937,3779.000,3775.000,3762.000
5278.340,3778.000,3763.000,3743.000
5296.692,3784.000,3766.000,3710.000
5314.995,3796.000,3742.000,3750.000
5333.247,3768.000,3749.000,3771.000
5351.451,3794.000,3752.000,3754.000
5369.606,3758.000,3755.000,3732.000
5387.711,3742.000,3694.000,3708.000
5405.768,3732.000,3731.000,3716.000
5423.777,3701.000,3670.000,3674.000
5441.736,3717.000,3691.000,3685.000
5459.648,3741.000,3682.000,3639.000
5477.510,3723.000,3685.000,3651.000
5495.328,3722.000,3702.000,3676.000
5513.095,3660.000,3674.000,3652.000
5530.816,3671.000,3673.000,3658.000
5548.489,3686.000,3675.000,3646.000
5566.116,3657.000,3656.000,3644.000
5583.697,3666.000,3654.000,3647.000
5601.228,3684.000,3654.000,3627.000
5618.716,3687.000,3672.000,3624.000
5636.157,3668.000,3629.000,3611.000
5653.551,3669.000,3628.000,3661.000
5666.567,3644.000,3643.000,3601.000