Folder: Data/Raman/Silica (part 65)

File: 2025_08_23_29Si17O2_Glass_2050C_Quenched_50X_532nm_6mW_Kymera328_600gv_2000wn_3accum_30s_UnPol_Pos2.csv
19.981,12278.000,12385.000,12340.000
37.206,8103.000,8153.000,8014.000
54.398,7088.000,7034.000,7012.000
71.561,7144.000,7040.000,7011.000
88.692,6950.000,6912.000,6872.000
105.792,6877.000,6787.000,6743.000
122.858,6674.000,6615.000,6577.000
139.896,6548.000,6501.000,6437.000
156.902,6435.000,6266.000,6237.000
173.875,6381.000,6216.000,6217.000
190.821,6342.000,6290.000,6236.000
207.733,6370.000,6269.000,6197.000
224.615,6498.000,6388.000,6322.000
241.467,6622.000,6569.000,6469.000
258.289,6833.000,6761.000,6704.000
275.081,7059.000,6977.000,6924.000
291.839,7298.000,7197.000,7142.000
308.570,7542.000,7476.000,7367.000
325.271,7737.000,7637.000,7580.000
341.938,8031.000,7835.000,7885.000
358.579,8151.000,8126.000,8056.000
375.189,8527.000,8356.000,8365.000
391.770,8770.000,8581.000,8499.000
408.318,8767.000,8767.000,8616.000
424.839,9035.000,8887.000,8785.000
441.330,9056.000,8881.000,8758.000
457.790,9002.000,8832.000,8800.000
474.222,8795.000,8585.000,8493.000
490.624,8495.000,8418.000,8238.000
506.995,8164.000,7915.000,7892.000
523.340,6932.000,6762.000,6763.000
539.654,6077.000,5911.000,5773.000
555.940,5710.000,5566.000,5403.000
572.195,5495.000,5376.000,5300.000
588.423,5439.000,5330.000,5274.000
604.621,5553.000,5388.000,5266.000
620.790,5544.000,5406.000,5302.000
636.931,5363.000,5227.000,5033.000
653.044,5231.000,5043.000,4922.000
669.128,5187.000,5024.000,4847.000
685.182,5148.000,5019.000,4885.000
701.210,5117.000,5044.000,4888.000
717.209,5153.000,5006.000,4936.000
733.177,5216.000,5020.000,4948.000
749.119,5324.000,5133.000,5018.000
765.033,5447.000,5353.000,5183.000
780.920,5777.000,5615.000,5578.000
796.776,5961.000,5764.000,5635.000
812.606,5896.000,5730.000,5585.000
828.410,5759.000,5528.000,5515.000
844.183,5598.000,5362.000,5297.000
859.930,5319.000,5112.000,5033.000
875.650,5216.000,5052.000,4892.000
891.339,5184.000,5059.000,4905.000
907.004,5264.000,5053.000,4915.000
922.642,5182.000,5054.000,4896.000
938.251,5232.000,5032.000,4908.000
953.832,5280.000,5045.000,4919.000
969.388,5251.000,5050.000,4977.000
984.916,5280.000,5162.000,5020.000
1000.416,5359.000,5145.000,5046.000
1015.891,5477.000,5241.000,5084.000
1031.338,5598.000,5407.000,5269.000
1046.757,5737.000,5624.000,5388.000
1062.151,5828.000,5580.000,5507.000
1077.519,5805.000,5655.000,5511.000
1092.859,5827.000,5681.000,5433.000
1108.171,5749.000,5600.000,5414.000
1123.459,5760.000,5548.000,5356.000
1138.721,5743.000,5535.000,5392.000
1153.954,5794.000,5545.000,5514.000
1169.162,5749.000,5584.000,5444.000
1184.345,5778.000,5639.000,5488.000
1199.501,5781.000,5577.000,5470.000
1214.629,5780.000,5628.000,5410.000
1229.734,5800.000,5536.000,5451.000
1244.812,5704.000,5559.000,5458.000
1259.864,5768.000,5471.000,5435.000
1274.889,5743.000,5529.000,5289.000
1289.891,5683.000,5474.000,5378.000
1304.866,5664.000,5514.000,5306.000
1319.814,5708.000,5419.000,5345.000
1334.738,5795.000,5505.000,5414.000
1349.637,5770.000,5497.000,5409.000
1364.509,5811.000,5574.000,5396.000
1379.357,5814.000,5546.000,5465.000
1394.180,5832.000,5597.000,5477.000
1408.978,5836.000,5656.000,5474.000
1423.747,5902.000,5659.000,5511.000
1438.495,5948.000,5695.000,5539.000
1453.218,5922.000,5705.000,5525.000
1467.913,7018.000,5689.000,5631.000
1482.586,5991.000,5803.000,5593.000
1497.233,6071.000,5810.000,5634.000
1511.854,6166.000,5879.000,5686.000
1526.452,6110.000,5923.000,5695.000
1541.026,6209.000,5907.000,5753.000
1555.575,6184.000,5965.000,5776.000
1570.098,6146.000,5949.000,5775.000
1584.598,6192.000,5937.000,5856.000
1599.073,6215.000,5955.000,5756.000
1613.523,6227.000,5969.000,5855.000
1627.950,6265.000,5966.000,5823.000
1642.353,6198.000,6004.000,5864.000
1656.729,6240.000,5949.000,5815.000
1671.084,6176.000,5925.000,5818.000
1685.415,6190.000,5968.000,5779.000
1699.721,6145.000,5930.000,5813.000
1714.002,6212.000,5956.000,5809.000
1728.262,6196.000,5971.000,5788.000
1742.497,6172.000,5881.000,5816.000
1756.707,6209.000,5879.000,5795.000
1770.894,6166.000,5964.000,5819.000
1785.059,6132.000,5964.000,5743.000
1799.198,6182.000,6005.000,5750.000
1813.314,6203.000,5891.000,5823.000
1827.408,6177.000,6020.000,5863.000
1841.478,6216.000,5991.000,5887.000
1855.524,6216.000,5982.000,5865.000
1869.547,6310.000,6030.000,5906.000
1883.547,6282.000,6022.000,5887.000
1897.525,6307.000,6069.000,5916.000
1911.477,6369.000,6132.000,5906.000
1925.409,6377.000,6107.000,5958.000
1939.317,6426.000,6202.000,5939.000
1953.201,6325.000,6099.000,6038.000
1967.063,6367.000,6255.000,5983.000
1980.903,6400.000,6204.000,5953.000
1994.718,6375.000,6151.000,6050.000
2008.513,6368.000,6128.000,5973.000
2022.284,6467.000,6175.000,6032.000
2036.031,6391.000,6221.000,6033.000
2049.758,6376.000,6199.000,6092.000
2063.462,6433.000,6193.000,6016.000
2077.145,6512.000,6296.000,6061.000
2090.802,6466.000,6185.000,6075.000
2104.439,6441.000,6254.000,6009.000
2118.054,6512.000,6232.000,6091.000
2131.644,6500.000,6267.000,6161.000
2145.215,6510.000,6342.000,6162.000
2158.763,6517.000,6264.000,6174.000
2172.290,6584.000,6388.000,6222.000
2185.793,6615.000,6423.000,6262.000
2199.275,6697.000,6397.000,6371.000
2212.736,6678.000,6501.000,6330.000
2226.174,6732.000,6517.000,6423.000
2239.591,6690.000,6547.000,6411.000
2252.985,6736.000,6559.000,6428.000
2266.359,6713.000,6498.000,6429.000
2279.710,6680.000,6436.000,6371.000
2293.040,6668.000,6400.000,6380.000
2306.349,6583.000,6414.000,6299.000
2319.635,6755.000,6479.000,6313.000
2332.901,6671.000,6466.000,6345.000
2346.147,6621.000,6487.000,6338.000
2359.370,6677.000,6483.000,6279.000
2372.571,6651.000,6456.000,6336.000
2385.751,6665.000,6544.000,6387.000
2398.912,6688.000,6591.000,6413.000
2412.048,6709.000,6471.000,6351.000
2425.167,6736.000,6496.000,6401.000
2438.264,6762.000,6544.000,6377.000
2451.339,6741.000,6519.000,6362.000
2464.393,6743.000,6616.000,6435.000
2477.427,6806.000,6477.000,6409.000
2490.440,6766.000,6579.000,6442.000
2503.432,6779.000,6617.000,6453.000
2516.404,6851.000,6610.000,6482.000
2529.355,6839.000,6596.000,6504.000
2542.284,6880.000,6654.000,6525.000
2555.195,6912.000,6697.000,6548.000
2568.084,6859.000,6666.000,6541.000
2580.952,6863.000,6698.000,6423.000
2593.800,6866.000,6660.000,6540.000
2606.629,6876.000,6740.000,6508.000
2619.437,6841.000,6687.000,6589.000
2632.224,6889.000,6647.000,6524.000
2644.992,6912.000,6732.000,6572.000
2657.739,6879.000,6712.000,6598.000
2670.466,6932.000,6758.000,6603.000
2683.172,6908.000,6672.000,6601.000
2695.861,6915.000,6740.000,6643.000
2708.528,6848.000,6710.000,6525.000
2721.174,6965.000,6722.000,6572.000
2733.801,6944.000,6779.000,6542.000
2746.409,6908.000,6747.000,6621.000
2758.996,6940.000,6722.000,6612.000
2771.564,6974.000,6762.000,6647.000
2784.114,6904.000,6735.000,6596.000
2796.642,6990.000,6721.000,6687.000
2809.150,6930.000,6836.000,6693.000
2821.640,6939.000,6845.000,6581.000
2834.111,6938.000,6846.000,6624.000
2846.560,6960.000,6869.000,6638.000
2858.992,6988.000,6778.000,6727.000
2871.404,7015.000,6875.000,6687.000
2883.797,7051.000,6920.000,6724.000
2896.169,7099.000,6965.000,6729.000
2908.523,7168.000,6961.000,6832.000
2920.859,7162.000,6984.000,6845.000
2933.173,7238.000,6953.000,6832.000
2945.470,7226.000,6995.000,6887.000
2957.748,7225.000,7010.000,6890.000
2970.006,7264.000,7086.000,6966.000
2982.246,7243.000,7065.000,6946.000
2994.467,7301.000,7083.000,6936.000
3006.667,7223.000,7123.000,6994.000
3018.851,7311.000,6951.000,6867.000
3031.016,7229.000,7046.000,6987.000
3043.161,7229.000,7075.000,7019.000
3055.287,7259.000,7104.000,6964.000
3067.395,7359.000,7066.000,6918.000
3079.485,7253.000,7081.000,6971.000
3091.555,7261.000,7211.000,6937.000
3103.608,7311.000,7160.000,7062.000
3115.643,7465.000,7103.000,7026.000
3127.658,7387.000,7202.000,7070.000
3139.654,7428.000,7157.000,7037.000
3151.634,7370.000,7182.000,7059.000
3163.594,7335.000,7273.000,7038.000
3175.535,7340.000,7261.000,7089.000
3187.459,7453.000,7266.000,7140.000
3199.365,7477.000,7273.000,7170.000
3211.253,7430.000,7296.000,7170.000
3223.122,7537.000,7272.000,7260.000
3234.974,7601.000,7263.000,7225.000
3246.808,7622.000,7344.000,7262.000
3258.622,7612.000,7460.000,7259.000
3270.419,7605.000,7457.000,7366.000
3282.199,7583.000,7378.000,7351.000
3293.962,7670.000,7497.000,7344.000
3305.705,7670.000,7490.000,7316.000
3317.431,7667.000,7483.000,7376.000
3329.139,7722.000,7635.000,7411.000
3340.829,7858.000,7699.000,7539.000
3352.502,7823.000,7803.000,7617.000
3364.158,7959.000,7875.000,7758.000
3375.796,8297.000,8060.000,7911.000
3387.415,8411.000,8259.000,8123.000
3399.018,8662.000,8444.000,8402.000
3410.604,8774.000,8564.000,8320.000
3422.171,8695.000,8619.000,8381.000
3433.722,8636.000,8494.000,8400.000
3445.255,8516.000,8376.000,8211.000
3456.771,8447.000,8177.000,8132.000
3468.269,8219.000,8087.000,7879.000
3479.751,8025.000,8057.000,7783.000
3491.215,7987.000,7755.000,7658.000
3502.662,7908.000,7712.000,7530.000
3514.091,7871.000,7715.000,7600.000
3525.505,7903.000,7746.000,7605.000
3536.900,7779.000,7729.000,7463.000
3548.279,7861.000,7694.000,7612.000
3559.641,7892.000,7779.000,7655.000
3570.985,7982.000,7682.000,7692.000
3582.313,7923.000,7751.000,7615.000
3590.799,7930.000,7838.000,7678.000

File: 2025_08_23_29Si17O2_Glass_2050C_Quenched_50X_532nm_12mW_Andor750_1200gv_480wn_3accum_30s_UnPol_Pos5.csv
7.043,771.000,773.000,763.000
10.712,788.000,772.000,771.000
14.379,794.000,811.000,796.000
18.044,846.000,845.000,835.000
21.709,937.000,927.000,920.000
25.372,902.000,892.000,895.000
29.034,966.000,957.000,962.000
32.695,1018.000,1035.000,1032.000
36.351,1005.000,987.000,989.000
40.009,1051.000,1081.000,1071.000
43.666,1039.000,1048.000,1042.000
47.320,1072.000,1040.000,1051.000
50.973,1038.000,1030.000,1032.000
54.623,1112.000,1078.000,1101.000
58.274,997.000,1010.000,1004.000
61.923,1004.000,1015.000,1037.000
65.570,1026.000,1033.000,1022.000
69.217,1021.000,999.000,1021.000
72.859,1041.000,1015.000,1006.000
76.503,1027.000,1014.000,979.000
80.146,1048.000,997.000,1019.000
83.786,1014.000,996.000,987.000
87.425,1068.000,1058.000,1063.000
91.061,1010.000,1008.000,1027.000
94.698,1020.000,1024.000,1025.000
98.332,989.000,1006.000,974.000
101.965,1021.000,1021.000,1024.000
105.595,972.000,970.000,967.000
109.226,984.000,1004.000,981.000
112.856,981.000,993.000,999.000
116.484,955.000,944.000,935.000
120.110,970.000,970.000,976.000
123.733,983.000,979.000,957.000
127.357,954.000,957.000,948.000
130.980,922.000,971.000,961.000
134.600,987.000,981.000,962.000
138.219,934.000,942.000,911.000
141.835,952.000,926.000,940.000
145.452,950.000,939.000,957.000
149.067,953.000,934.000,932.000
152.681,926.000,948.000,916.000
156.294,948.000,957.000,931.000
159.903,930.000,935.000,918.000
163.512,932.000,924.000,916.000
167.121,938.000,943.000,959.000
170.727,935.000,921.000,933.000
174.333,948.000,943.000,932.000
177.935,935.000,940.000,923.000
181.538,923.000,938.000,939.000
185.138,937.000,933.000,925.000
188.739,931.000,940.000,959.000
192.337,947.000,930.000,952.000
195.932,937.000,951.000,936.000
199.527,953.000,950.000,947.000
203.122,947.000,956.000,944.000
206.715,953.000,930.000,935.000
210.306,932.000,957.000,950.000
213.895,935.000,950.000,946.000
217.483,954.000,947.000,961.000
221.071,945.000,940.000,951.000
224.657,954.000,962.000,965.000
228.241,963.000,954.000,967.000
231.823,959.000,971.000,965.000
235.404,988.000,979.000,982.000
238.985,977.000,964.000,976.000
242.564,954.000,990.000,987.000
246.142,983.000,966.000,996.000
249.716,982.000,974.000,991.000
253.291,993.000,983.000,997.000
256.864,1015.000,980.000,1015.000
260.437,1003.000,999.000,993.000
264.005,1008.000,1007.000,1035.000
267.575,1015.000,1018.000,1025.000
271.144,1033.000,1017.000,1017.000
274.709,1029.000,1053.000,1032.000
278.275,1024.000,1036.000,1029.000
281.838,1057.000,1055.000,1046.000
285.400,1050.000,1025.000,1049.000
288.961,1038.000,1052.000,1042.000
292.521,1049.000,1061.000,1050.000
296.079,1032.000,1067.000,1044.000
299.634,1070.000,1079.000,1059.000
303.190,1071.000,1064.000,1067.000
306.745,1087.000,1090.000,1068.000
310.298,1067.000,1048.000,1075.000
313.849,1082.000,1084.000,1071.000
317.397,1114.000,1102.000,1051.000
320.946,1116.000,1090.000,1098.000
324.493,1100.000,1085.000,1076.000
328.039,1115.000,1137.000,1110.000
331.584,1129.000,1132.000,1108.000
335.125,1110.000,1120.000,1105.000
338.668,1150.000,1125.000,1105.000
342.209,1129.000,1141.000,1131.000
345.748,1163.000,1121.000,1121.000
349.286,1140.000,1149.000,1167.000
352.821,1163.000,1126.000,1136.000
356.356,1155.000,1132.000,1154.000
359.891,1186.000,1178.000,1165.000
363.423,1195.000,1168.000,1170.000
366.955,1160.000,1173.000,1166.000
370.482,1190.000,1171.000,1183.000
374.011,1210.000,1218.000,1164.000
377.538,1191.000,1198.000,1187.000
381.064,1203.000,1187.000,1220.000
384.588,1193.000,1195.000,1178.000
388.110,1194.000,1237.000,1217.000
391.631,1201.000,1204.000,1189.000
395.152,1218.000,1178.000,1178.000
398.671,1204.000,1225.000,1234.000
402.189,1214.000,1223.000,1199.000
405.702,1207.000,1193.000,1215.000
409.218,1268.000,1225.000,1215.000
412.731,1233.000,1216.000,1227.000
416.244,1222.000,1209.000,1208.000
419.752,1211.000,1200.000,1244.000
423.262,1219.000,1239.000,1210.000
426.771,1213.000,1214.000,1212.000
430.278,1250.000,1234.000,1229.000
433.784,1223.000,1251.000,1213.000
437.286,1208.000,1187.000,1188.000
440.789,1222.000,1205.000,1219.000
444.290,1243.000,1201.000,1213.000
447.791,1212.000,1185.000,1209.000
451.291,1187.000,1173.000,1199.000
454.785,1190.000,1197.000,1184.000
458.282,1183.000,1158.000,1168.000
461.777,1165.000,1188.000,1157.000
465.271,1159.000,1166.000,1141.000
468.763,1132.000,1148.000,1149.000
472.252,1148.000,1156.000,1146.000
475.742,1190.000,1143.000,1149.000
479.230,1153.000,1196.000,1185.000
482.717,1169.000,1167.000,1158.000
486.203,1159.000,1173.000,1164.000
489.685,1151.000,1128.000,1125.000
493.169,1094.000,1096.000,1116.000
496.651,1058.000,1039.000,1053.000
500.130,1023.000,1010.000,978.000
503.610,990.000,975.000,963.000
507.085,920.000,925.000,934.000
510.562,914.000,896.000,914.000
514.037,886.000,884.000,887.000
517.511,845.000,863.000,837.000
520.984,845.000,842.000,846.000
524.453,834.000,838.000,826.000
527.922,824.000,804.000,821.000
531.391,808.000,810.000,805.000
534.858,798.000,782.000,793.000
538.324,812.000,803.000,775.000
541.786,787.000,774.000,775.000
545.249,784.000,778.000,776.000
548.712,777.000,787.000,782.000
552.173,773.000,774.000,764.000
555.631,767.000,756.000,766.000
559.088,770.000,768.000,764.000
562.544,767.000,761.000,770.000
565.999,756.000,747.000,754.000
569.453,762.000,762.000,771.000
572.906,747.000,743.000,747.000
576.355,745.000,749.000,754.000
579.806,764.000,753.000,755.000
583.255,773.000,768.000,761.000
586.702,759.000,767.000,761.000
590.148,772.000,767.000,778.000
593.592,769.000,782.000,786.000
597.036,777.000,773.000,770.000
600.478,774.000,790.000,780.000
603.919,767.000,778.000,764.000
607.357,762.000,767.000,756.000
610.795,758.000,767.000,753.000
614.232,734.000,759.000,746.000
617.668,744.000,741.000,742.000
621.102,737.000,734.000,745.000
624.534,723.000,728.000,733.000
627.966,733.000,722.000,728.000
631.397,728.000,739.000,731.000
634.825,723.000,718.000,717.000
638.254,713.000,728.000,726.000
641.678,725.000,715.000,723.000
645.103,714.000,709.000,702.000
648.528,727.000,729.000,717.000
651.951,713.000,702.000,708.000
655.372,704.000,713.000,718.000
658.790,704.000,717.000,713.000
662.209,711.000,712.000,712.000
665.627,715.000,715.000,713.000
669.044,713.000,700.000,704.000
672.459,694.000,701.000,707.000
675.871,705.000,708.000,710.000
679.284,703.000,708.000,710.000
682.695,723.000,707.000,710.000
686.105,726.000,708.000,721.000
689.514,729.000,707.000,702.000
692.919,700.000,716.000,699.000
696.325,710.000,708.000,707.000
699.730,707.000,707.000,705.000
703.134,705.000,702.000,699.000
706.536,712.000,700.000,707.000
709.935,706.000,714.000,711.000
713.334,719.000,714.000,721.000
716.734,706.000,714.000,710.000
720.131,706.000,715.000,708.000
723.527,709.000,714.000,708.000
726.919,711.000,707.000,711.000
730.312,714.000,699.000,726.000
733.705,717.000,711.000,712.000
737.096,721.000,707.000,709.000
740.482,712.000,707.000,717.000
743.871,717.000,711.000,711.000
747.258,729.000,711.000,719.000
750.644,727.000,716.000,725.000
754.029,739.000,727.000,724.000
757.409,756.000,743.000,743.000
760.792,758.000,759.000,735.000
764.172,769.000,764.000,770.000
767.551,783.000,767.000,789.000
770.930,770.000,775.000,772.000
774.305,789.000,789.000,774.000
777.681,780.000,791.000,787.000
781.054,784.000,789.000,796.000
784.428,798.000,792.000,798.000
787.799,800.000,780.000,767.000
791.169,777.000,789.000,777.000
794.538,783.000,791.000,782.000
797.905,785.000,777.000,789.000
801.272,776.000,786.000,773.000
804.638,794.000,792.000,774.000
808.000,772.000,780.000,773.000
811.363,773.000,774.000,774.000
814.725,755.000,785.000,757.000
818.085,771.000,768.000,761.000
821.445,771.000,763.000,748.000
824.801,770.000,755.000,753.000
828.157,748.000,759.000,751.000
831.513,752.000,756.000,732.000
834.867,741.000,737.000,736.000
838.220,731.000,738.000,751.000
841.569,729.000,722.000,717.000
844.920,720.000,723.000,716.000
848.269,718.000,718.000,721.000
851.617,719.000,709.000,710.000
854.964,714.000,704.000,695.000
858.308,704.000,709.000,712.000
861.652,703.000,716.000,710.000
864.994,716.000,711.000,705.000
868.337,706.000,716.000,712.000
871.677,708.000,717.000,717.000
875.014,717.000,712.000,718.000
878.352,710.000,709.000,706.000
881.690,703.000,713.000,719.000
885.025,720.000,729.000,703.000
888.359,725.000,719.000,728.000
891.690,725.000,721.000,718.000
895.021,722.000,723.000,735.000
898.352,731.000,738.000,724.000
900.849,731.000,736.000,741.000