Folder: Data/Raman/Silica (part 45)

File: 2025_08_22_Nat_Qtz_50X_532nm_74mW_Andor750_600gv_3400wn_3accum_5s_UnPol.csv
2654.492,713.000,696.000,707.000
2660.180,714.000,720.000,712.000
2665.866,720.000,717.000,719.000
2671.545,708.000,720.000,711.000
2677.221,724.000,717.000,715.000
2682.894,719.000,718.000,723.000
2688.562,721.000,728.000,727.000
2694.227,714.000,728.000,737.000
2699.886,725.000,720.000,717.000
2705.543,717.000,715.000,730.000
2711.196,722.000,717.000,721.000
2716.844,725.000,718.000,712.000
2722.488,727.000,729.000,723.000
2728.129,709.000,719.000,726.000
2733.765,715.000,725.000,716.000
2739.399,713.000,710.000,723.000
2745.027,713.000,721.000,715.000
2750.650,715.000,725.000,716.000
2756.272,708.000,721.000,716.000
2761.889,727.000,727.000,714.000
2767.503,731.000,714.000,723.000
2773.111,717.000,726.000,709.000
2778.716,724.000,727.000,714.000
2784.316,726.000,713.000,721.000
2789.915,723.000,715.000,726.000
2795.507,723.000,732.000,726.000
2801.098,727.000,725.000,722.000
2806.682,720.000,722.000,724.000
2812.264,733.000,724.000,719.000
2817.842,718.000,729.000,723.000
2823.416,732.000,738.000,724.000
2828.986,730.000,716.000,720.000
2834.551,727.000,727.000,726.000
2840.113,716.000,724.000,722.000
2845.672,730.000,711.000,718.000
2851.227,733.000,723.000,732.000
2856.776,721.000,717.000,720.000
2862.323,728.000,729.000,732.000
2867.867,728.000,725.000,733.000
2873.406,713.000,737.000,720.000
2878.941,729.000,722.000,730.000
2884.471,716.000,732.000,722.000
2889.998,714.000,725.000,736.000
2895.522,730.000,730.000,731.000
2901.043,722.000,733.000,734.000
2906.558,735.000,724.000,722.000
2912.069,735.000,727.000,728.000
2917.578,736.000,719.000,732.000
2923.083,729.000,739.000,728.000
2928.584,726.000,739.000,725.000
2934.081,733.000,737.000,731.000
2939.573,725.000,731.000,744.000
2945.063,732.000,741.000,730.000
2950.548,740.000,724.000,745.000
2956.030,737.000,729.000,726.000
2961.509,726.000,746.000,743.000
2966.981,730.000,727.000,727.000
2972.452,738.000,739.000,747.000
2977.919,723.000,732.000,734.000
2983.382,747.000,722.000,727.000
2988.840,746.000,745.000,731.000
2994.295,767.000,734.000,734.000
2999.746,742.000,735.000,741.000
3005.195,744.000,733.000,743.000
3010.638,727.000,744.000,743.000
3016.077,742.000,736.000,750.000
3021.514,747.000,737.000,727.000
3026.947,739.000,750.000,733.000
3032.377,749.000,747.000,739.000
3037.801,751.000,733.000,739.000
3043.222,729.000,733.000,727.000
3048.640,741.000,733.000,740.000
3054.054,730.000,744.000,750.000
3059.465,738.000,736.000,755.000
3064.872,742.000,747.000,735.000
3070.273,745.000,746.000,749.000
3075.673,743.000,744.000,752.000
3081.068,744.000,735.000,735.000
3086.461,738.000,738.000,743.000
3091.847,753.000,743.000,751.000
3097.231,750.000,742.000,747.000
3102.613,747.000,744.000,744.000
3107.991,738.000,735.000,740.000
3113.363,749.000,749.000,740.000
3118.732,752.000,750.000,734.000
3124.098,748.000,744.000,755.000
3129.461,752.000,744.000,739.000
3134.820,759.000,756.000,738.000
3140.175,741.000,737.000,752.000
3145.525,756.000,750.000,746.000
3150.873,752.000,753.000,758.000
3156.217,753.000,763.000,758.000
3161.558,756.000,766.000,749.000
3166.894,753.000,751.000,746.000
3172.226,746.000,746.000,763.000
3177.556,752.000,746.000,755.000
3182.882,756.000,753.000,758.000
3188.204,752.000,757.000,750.000
3193.522,758.000,757.000,763.000
3198.836,768.000,760.000,745.000
3204.148,739.000,752.000,755.000
3209.456,769.000,764.000,741.000
3214.761,759.000,755.000,754.000
3220.060,756.000,760.000,758.000
3225.357,762.000,747.000,751.000
3230.650,765.000,756.000,761.000
3235.940,757.000,761.000,770.000
3241.227,761.000,769.000,753.000
3246.507,762.000,760.000,765.000
3251.787,770.000,746.000,761.000
3257.063,772.000,764.000,751.000
3262.334,750.000,769.000,758.000
3267.603,754.000,768.000,761.000
3272.866,760.000,765.000,747.000
3278.127,753.000,772.000,765.000
3283.385,758.000,747.000,766.000
3288.639,775.000,765.000,759.000
3293.890,758.000,767.000,746.000
3299.135,760.000,754.000,759.000
3304.379,773.000,761.000,777.000
3309.618,763.000,765.000,772.000
3314.855,771.000,755.000,756.000
3320.087,763.000,776.000,767.000
3325.316,768.000,764.000,767.000
3330.542,762.000,770.000,767.000
3335.763,764.000,764.000,766.000
3340.982,768.000,765.000,787.000
3346.196,773.000,773.000,771.000
3351.408,767.000,773.000,780.000
3356.615,775.000,785.000,767.000
3361.820,766.000,755.000,785.000
3367.022,775.000,768.000,771.000
3372.217,778.000,780.000,766.000
3377.412,778.000,767.000,761.000
3382.603,774.000,769.000,761.000
3387.789,772.000,780.000,777.000
3392.973,763.000,772.000,772.000
3398.152,769.000,782.000,774.000
3403.328,782.000,776.000,783.000
3408.502,787.000,775.000,780.000
3413.672,767.000,770.000,776.000
3418.838,779.000,781.000,775.000
3423.999,777.000,774.000,774.000
3429.158,769.000,777.000,779.000
3434.314,781.000,782.000,785.000
3439.467,777.000,782.000,776.000
3444.614,781.000,792.000,763.000
3449.759,778.000,771.000,791.000
3454.901,780.000,781.000,786.000
3460.040,779.000,792.000,779.000
3465.175,791.000,777.000,776.000
3470.305,775.000,775.000,787.000
3475.433,788.000,774.000,791.000
3480.559,779.000,773.000,791.000
3485.680,785.000,793.000,782.000
3490.798,785.000,776.000,797.000
3495.911,790.000,785.000,794.000
3501.023,796.000,773.000,799.000
3506.130,784.000,807.000,787.000
3511.235,795.000,786.000,784.000
3516.336,777.000,796.000,777.000
3521.431,797.000,792.000,788.000
3526.526,799.000,793.000,792.000
3531.617,794.000,795.000,781.000
3536.704,795.000,795.000,799.000
3541.787,807.000,784.000,791.000
3546.867,803.000,784.000,800.000
3551.944,802.000,801.000,806.000
3557.017,790.000,822.000,804.000
3562.088,800.000,812.000,811.000
3567.154,815.000,815.000,827.000
3572.218,834.000,827.000,832.000
3577.278,840.000,826.000,829.000
3582.335,841.000,832.000,847.000
3587.389,849.000,848.000,830.000
3592.437,871.000,863.000,863.000
3597.484,863.000,878.000,878.000
3602.528,894.000,876.000,886.000
3607.568,891.000,894.000,902.000
3612.604,891.000,890.000,903.000
3617.637,929.000,909.000,910.000
3622.667,922.000,919.000,924.000
3627.694,927.000,937.000,940.000
3632.718,941.000,954.000,948.000
3637.736,946.000,961.000,939.000
3642.753,971.000,975.000,955.000
3647.767,949.000,940.000,947.000
3652.777,955.000,947.000,965.000
3657.784,951.000,956.000,961.000
3662.786,933.000,963.000,936.000
3667.786,933.000,942.000,940.000
3672.783,925.000,943.000,929.000
3677.777,933.000,926.000,934.000
3682.767,915.000,927.000,920.000
3687.753,912.000,926.000,915.000
3692.737,920.000,900.000,915.000
3697.717,904.000,899.000,895.000
3702.695,893.000,904.000,918.000
3707.668,914.000,914.000,919.000
3712.638,920.000,913.000,902.000
3717.605,935.000,916.000,919.000
3722.569,906.000,928.000,916.000
3727.531,947.000,926.000,934.000
3732.487,945.000,943.000,943.000
3737.441,933.000,949.000,925.000
3742.392,952.000,960.000,928.000
3747.340,983.000,960.000,938.000
3752.284,967.000,968.000,981.000
3757.226,974.000,962.000,966.000
3762.162,945.000,989.000,964.000
3767.097,979.000,989.000,988.000
3772.029,967.000,991.000,999.000
3776.957,998.000,1000.000,1001.000
3781.882,977.000,976.000,974.000
3786.803,1001.000,997.000,972.000
3791.722,1010.000,1014.000,1042.000
3796.637,1033.000,1049.000,1025.000
3801.550,1055.000,1036.000,1031.000
3806.457,1030.000,1063.000,1031.000
3811.363,1066.000,1037.000,1073.000
3816.266,1102.000,1084.000,1077.000
3821.165,1107.000,1091.000,1092.000
3826.061,1113.000,1110.000,1101.000
3830.953,1124.000,1126.000,1121.000
3835.842,1133.000,1133.000,1121.000
3840.730,1141.000,1129.000,1147.000
3845.613,1174.000,1161.000,1146.000
3850.493,1201.000,1174.000,1147.000
3855.369,1205.000,1170.000,1178.000
3860.243,1172.000,1220.000,1180.000
3865.113,1207.000,1179.000,1187.000
3869.981,1191.000,1191.000,1201.000
3874.844,1185.000,1225.000,1210.000
3879.705,1231.000,1215.000,1208.000
3884.563,1177.000,1209.000,1199.000
3889.418,1177.000,1210.000,1217.000
3894.269,1193.000,1195.000,1185.000
3899.117,1192.000,1168.000,1170.000
3903.962,1195.000,1180.000,1196.000
3908.805,1162.000,1164.000,1155.000
3913.643,1162.000,1178.000,1190.000
3918.479,1149.000,1151.000,1178.000
3923.311,1162.000,1174.000,1124.000
3928.140,1143.000,1151.000,1163.000
3932.967,1139.000,1113.000,1132.000
3937.791,1142.000,1138.000,1108.000
3942.610,1136.000,1087.000,1124.000
3947.427,1148.000,1148.000,1144.000
3952.240,1142.000,1155.000,1156.000
3957.052,1137.000,1118.000,1153.000
3961.859,1144.000,1127.000,1136.000
3966.662,1105.000,1109.000,1154.000
3971.464,1157.000,1119.000,1152.000
3976.263,1139.000,1177.000,1125.000
3981.058,1145.000,1167.000,1183.000
3985.849,1161.000,1169.000,1187.000
3989.441,1175.000,1146.000,1164.000

File: 2025_08_22_Nat_Qtz_50X_532nm_74mW_Andor750_600gv_4000wn_3accum_5s_UnPol.csv
3314.254,769.000,771.000,769.000
3319.475,768.000,777.000,773.000
3324.692,761.000,781.000,782.000
3329.906,773.000,779.000,762.000
3335.116,788.000,786.000,789.000
3340.323,781.000,781.000,786.000
3345.526,790.000,776.000,786.000
3350.726,785.000,803.000,767.000
3355.921,772.000,799.000,781.000
3361.115,786.000,787.000,794.000
3366.305,779.000,800.000,786.000
3371.490,780.000,779.000,789.000
3376.673,775.000,780.000,789.000
3381.851,791.000,776.000,795.000
3387.028,786.000,792.000,788.000
3392.198,780.000,804.000,798.000
3397.368,784.000,795.000,786.000
3402.532,787.000,793.000,793.000
3407.694,795.000,781.000,794.000
3412.852,791.000,804.000,793.000
3418.006,780.000,788.000,793.000
3423.158,803.000,809.000,778.000
3428.305,785.000,787.000,804.000
3433.449,806.000,786.000,796.000
3438.590,802.000,792.000,787.000
3443.728,798.000,803.000,793.000
3448.860,798.000,795.000,777.000
3453.992,799.000,785.000,782.000
3459.120,802.000,794.000,798.000
3464.242,800.000,795.000,780.000
3469.364,810.000,787.000,791.000
3474.480,795.000,803.000,802.000
3479.593,796.000,789.000,807.000
3484.702,789.000,786.000,798.000
3489.810,809.000,802.000,797.000
3494.912,803.000,799.000,794.000
3500.012,801.000,806.000,805.000
3505.110,800.000,813.000,798.000
3510.202,801.000,794.000,802.000
3515.292,816.000,806.000,786.000
3520.378,786.000,795.000,812.000
3525.461,817.000,811.000,802.000
3530.540,793.000,816.000,812.000
3535.617,807.000,815.000,823.000
3540.688,815.000,794.000,813.000
3545.758,817.000,824.000,807.000
3550.825,824.000,821.000,817.000
3555.887,840.000,816.000,815.000
3560.946,831.000,834.000,816.000
3566.001,833.000,831.000,818.000
3571.055,838.000,833.000,841.000
3576.102,846.000,845.000,840.000
3581.149,832.000,849.000,853.000
3586.191,868.000,841.000,862.000
3591.231,883.000,892.000,875.000
3596.267,895.000,909.000,874.000
3601.298,899.000,908.000,899.000
3606.329,912.000,914.000,913.000
3611.353,927.000,934.000,930.000
3616.376,942.000,929.000,936.000
3621.395,959.000,949.000,926.000
3626.411,954.000,939.000,941.000
3631.423,947.000,970.000,970.000
3636.434,967.000,966.000,960.000
3641.439,966.000,976.000,963.000
3646.442,978.000,974.000,969.000
3651.441,955.000,984.000,980.000
3656.436,963.000,965.000,960.000
3661.430,951.000,965.000,951.000
3666.419,960.000,929.000,954.000
3671.405,947.000,952.000,953.000
3676.387,929.000,941.000,912.000
3681.367,926.000,940.000,930.000
3686.344,917.000,928.000,935.000
3691.316,937.000,936.000,930.000
3696.287,939.000,926.000,919.000
3701.252,927.000,931.000,923.000
3706.216,941.000,918.000,946.000
3711.176,925.000,927.000,941.000
3716.133,928.000,947.000,942.000
3721.086,922.000,959.000,924.000
3726.036,949.000,932.000,958.000
3730.984,943.000,951.000,959.000
3735.927,929.000,947.000,948.000
3740.867,975.000,946.000,956.000
3745.803,979.000,976.000,974.000
3750.738,980.000,951.000,1001.000
3755.668,952.000,968.000,989.000
3760.596,989.000,993.000,1003.000
3765.522,1002.000,1006.000,1012.000
3770.442,1014.000,992.000,1000.000
3775.360,1040.000,1027.000,1038.000
3780.274,1016.000,1015.000,1016.000
3785.186,1018.000,1028.000,1038.000
3790.094,1051.000,1037.000,1049.000
3794.998,1040.000,1053.000,1055.000
3799.899,1082.000,1048.000,1056.000
3804.799,1085.000,1064.000,1073.000
3809.694,1075.000,1116.000,1081.000
3814.586,1127.000,1095.000,1097.000
3819.476,1109.000,1092.000,1108.000
3824.360,1137.000,1105.000,1129.000
3829.244,1116.000,1155.000,1162.000
3834.123,1163.000,1182.000,1151.000
3839.000,1185.000,1195.000,1192.000
3843.872,1188.000,1187.000,1164.000
3848.742,1200.000,1229.000,1205.000
3853.610,1207.000,1218.000,1209.000
3858.472,1246.000,1198.000,1212.000
3863.333,1213.000,1236.000,1232.000
3868.190,1204.000,1204.000,1236.000
3873.044,1257.000,1240.000,1206.000
3877.894,1226.000,1231.000,1205.000
3882.743,1242.000,1248.000,1220.000
3887.587,1242.000,1279.000,1205.000
3892.428,1233.000,1198.000,1238.000
3897.268,1211.000,1238.000,1218.000
3902.101,1201.000,1209.000,1208.000
3906.934,1189.000,1221.000,1214.000
3911.763,1202.000,1199.000,1201.000
3916.589,1193.000,1202.000,1182.000
3921.411,1182.000,1160.000,1165.000
3926.231,1192.000,1180.000,1150.000
3931.047,1144.000,1165.000,1165.000
3935.861,1155.000,1150.000,1155.000
3940.671,1163.000,1159.000,1181.000
3945.478,1149.000,1133.000,1166.000
3950.282,1148.000,1143.000,1122.000
3955.082,1172.000,1165.000,1159.000
3959.881,1142.000,1145.000,1189.000
3964.673,1145.000,1168.000,1165.000
3969.466,1157.000,1177.000,1160.000
3974.253,1185.000,1169.000,1188.000
3979.039,1191.000,1189.000,1190.000
3983.823,1177.000,1168.000,1210.000
3988.600,1219.000,1202.000,1195.000
3993.378,1190.000,1199.000,1195.000
3998.150,1187.000,1159.000,1206.000
4002.921,1187.000,1187.000,1185.000
4007.687,1172.000,1175.000,1195.000
4012.450,1166.000,1213.000,1180.000
4017.211,1184.000,1159.000,1183.000
4021.968,1164.000,1178.000,1147.000
4026.724,1147.000,1133.000,1167.000
4031.475,1158.000,1164.000,1140.000
4036.224,1122.000,1153.000,1099.000
4040.969,1147.000,1152.000,1122.000
4045.711,1106.000,1126.000,1127.000
4050.449,1129.000,1111.000,1118.000
4055.186,1108.000,1109.000,1128.000
4059.920,1095.000,1087.000,1081.000
4064.650,1097.000,1107.000,1109.000
4069.377,1096.000,1114.000,1111.000
4074.102,1100.000,1121.000,1101.000
4078.823,1116.000,1138.000,1142.000
4083.541,1098.000,1123.000,1121.000
4088.255,1103.000,1130.000,1122.000
4092.967,1111.000,1102.000,1114.000
4097.677,1116.000,1089.000,1106.000
4102.382,1108.000,1129.000,1113.000
4107.086,1075.000,1095.000,1102.000
4111.786,1078.000,1089.000,1101.000
4116.483,1130.000,1105.000,1099.000
4121.176,1108.000,1093.000,1117.000
4125.867,1134.000,1094.000,1123.000
4130.556,1090.000,1107.000,1091.000
4135.239,1112.000,1082.000,1112.000
4139.923,1111.000,1128.000,1099.000
4144.600,1085.000,1085.000,1083.000
4149.277,1100.000,1088.000,1069.000
4153.951,1074.000,1056.000,1071.000
4158.620,1087.000,1075.000,1082.000
4163.287,1057.000,1060.000,1056.000
4167.951,1067.000,1075.000,1059.000
4172.612,1065.000,1075.000,1058.000
4177.270,1059.000,1057.000,1063.000
4181.925,1044.000,1051.000,1042.000
4186.577,1041.000,1023.000,1065.000
4191.227,1034.000,1050.000,1045.000
4195.874,1047.000,1040.000,1031.000
4200.516,1023.000,1034.000,1032.000
4205.157,1017.000,1024.000,1023.000
4209.794,1013.000,1020.000,1043.000
4214.429,1010.000,1014.000,1010.000
4219.060,986.000,1037.000,1000.000
4223.689,1002.000,1012.000,1006.000
4228.313,1019.000,1009.000,1024.000
4232.937,1024.000,1000.000,1024.000
4237.558,1021.000,998.000,1035.000
4242.174,1028.000,1020.000,1035.000
4246.789,1028.000,1028.000,1024.000
4251.399,998.000,1030.000,1037.000
4256.007,1034.000,1036.000,1019.000
4260.612,1024.000,1063.000,1032.000
4265.215,1019.000,1042.000,1042.000
4269.813,1038.000,1029.000,1041.000
4274.410,1053.000,1042.000,1080.000
4279.004,1068.000,1056.000,1080.000
4283.594,1081.000,1091.000,1090.000
4288.182,1126.000,1096.000,1108.000
4292.767,1135.000,1121.000,1142.000
4297.349,1163.000,1163.000,1153.000
4301.928,1185.000,1212.000,1245.000
4306.504,1246.000,1278.000,1262.000
4311.077,1325.000,1360.000,1341.000
4315.647,1380.000,1391.000,1388.000
4320.215,1493.000,1482.000,1512.000
4324.779,1644.000,1649.000,1688.000
4329.341,1861.000,1878.000,1874.000
4333.900,2211.000,2228.000,2226.000
4338.456,2782.000,2749.000,2725.000
4343.008,3521.000,3492.000,3569.000
4347.559,4853.000,4829.000,4833.000
4352.106,6894.000,6765.000,6861.000
4356.651,10071.000,10037.000,10253.000
4361.193,13708.000,13766.000,13818.000
4365.731,15191.000,15235.000,15255.000
4370.268,13695.000,13855.000,13733.000
4374.800,12320.000,12234.000,12256.000
4379.331,12484.000,12486.000,12573.000
4383.857,14974.000,14931.000,14850.000
4388.382,19234.000,19234.000,19125.000
4392.904,23218.000,23258.000,23239.000
4397.423,22407.000,22476.000,22507.000
4401.940,18525.000,18453.000,18342.000
4406.452,13899.000,14021.000,14031.000
4410.963,10591.000,10615.000,10619.000
4415.470,8179.000,8352.000,8275.000
4419.975,6540.000,6623.000,6582.000
4424.477,5443.000,5479.000,5503.000
4428.976,4613.000,4646.000,4615.000
4433.472,4081.000,4000.000,4004.000
4437.966,3480.000,3489.000,3502.000
4442.457,3094.000,3123.000,3132.000
4446.944,2862.000,2815.000,2869.000
4451.429,2708.000,2669.000,2700.000
4455.911,2517.000,2545.000,2605.000
4460.391,2431.000,2448.000,2471.000
4464.867,2367.000,2368.000,2353.000
4469.341,2318.000,2314.000,2314.000
4473.811,2277.000,2209.000,2243.000
4478.280,2177.000,2178.000,2191.000
4482.746,2139.000,2089.000,2086.000
4487.208,2050.000,2064.000,2094.000
4491.669,2013.000,2033.000,2011.000
4496.126,2040.000,2023.000,2041.000
4500.580,2071.000,2019.000,1991.000
4505.032,2038.000,1974.000,2067.000
4509.481,2009.000,1968.000,1970.000
4513.926,1919.000,1894.000,1900.000
4518.369,1849.000,1834.000,1882.000
4522.810,1825.000,1809.000,1784.000
4527.248,1818.000,1837.000,1828.000
4531.684,1827.000,1856.000,1807.000
4536.114,1899.000,1888.000,1908.000
4540.545,1957.000,1973.000,1991.000
4543.865,1996.000,1959.000,1967.000