Folder: Data/Raman/Silica (part 33)

File: 2025_08_22_BB1392_SiO2_8wtPctH2O_Glass_50X_532nm_750uW_Kymera328_300gv_3000wn_3accum_300s_Unpol.csv
-1027.971,3342.000,3331.000,3320.000
-988.527,3355.000,3346.000,3318.000
-949.242,3345.000,3363.000,3353.000
-910.112,3357.000,3356.000,3351.000
-871.134,3403.000,3379.000,3367.000
-832.312,3399.000,3385.000,3356.000
-793.643,3431.000,3392.000,3396.000
-755.126,3444.000,3387.000,3393.000
-716.759,3484.000,3461.000,3412.000
-678.542,3492.000,3452.000,3437.000
-640.479,3550.000,3492.000,3470.000
-602.559,3621.000,3558.000,3521.000
-564.789,3695.000,3637.000,3658.000
-527.164,3864.000,3824.000,4640.000
-489.688,4241.000,4200.000,4099.000
-452.355,4482.000,4388.000,4341.000
-415.165,4574.000,4468.000,4467.000
-378.122,4648.000,4588.000,4535.000
-341.221,4743.000,4605.000,4621.000
-304.460,4867.000,4725.000,4735.000
-267.840,5050.000,4895.000,4812.000
-231.358,5300.000,5218.000,5094.000
-195.022,5662.000,5532.000,5544.000
-158.818,6271.000,6113.000,6117.000
-122.755,7236.000,7073.000,7071.000
-86.827,8714.000,8507.000,8737.000
-51.039,10903.000,10632.000,10495.000
-15.382,32234.000,30260.000,28308.000
20.139,46816.000,45509.000,43867.000
55.524,65535.000,65535.000,65535.000
90.779,65535.000,65535.000,65535.000
125.899,65535.000,65535.000,61729.000
160.890,13548.000,13047.000,12599.000
195.746,9764.000,12025.000,9385.000
230.476,9202.000,8860.000,8739.000
265.077,9084.000,8730.000,8720.000
299.547,9265.000,8917.000,8755.000
333.888,9603.000,9224.000,9138.000
368.102,10091.000,9613.000,9835.000
402.192,10550.000,10182.000,10153.000
436.157,11073.000,10803.000,10813.000
469.991,11867.000,11507.000,11425.000
503.705,10799.000,10398.000,10372.000
537.295,8795.000,8466.000,8349.000
570.762,7625.000,7226.000,7068.000
604.103,6994.000,6832.000,6440.000
637.326,6670.000,6215.000,6083.000
670.426,6465.000,6022.000,5935.000
703.408,6408.000,5957.000,5749.000
736.267,6379.000,5955.000,5766.000
769.008,6614.000,6076.000,5975.000
801.632,6780.000,6228.000,6139.000
834.134,6583.000,6083.000,5991.000
866.524,6388.000,5904.000,5805.000
898.796,6445.000,5979.000,5816.000
930.951,7378.000,6329.000,6199.000
962.991,7244.000,6758.000,6583.000
994.915,7097.000,6586.000,6490.000
1026.727,6789.000,6344.000,6139.000
1058.424,6825.000,6234.000,6130.000
1090.008,6744.000,6224.000,6006.000
1121.480,6705.000,8755.000,5943.000
1152.842,6697.000,6118.000,6009.000
1184.092,6716.000,6153.000,5912.000
1215.230,6579.000,7001.000,5812.000
1246.260,6545.000,5958.000,5775.000
1277.179,6462.000,5872.000,5693.000
1307.992,6543.000,5877.000,5701.000
1338.694,6591.000,5892.000,5715.000
1369.289,6587.000,5942.000,5743.000
1399.779,6663.000,6008.000,5898.000
1430.161,6759.000,6091.000,5848.000
1460.436,6834.000,6135.000,5880.000
1490.606,6889.000,6245.000,5978.000
1520.672,7006.000,6318.000,6054.000
1550.635,7031.000,6297.000,6116.000
1580.490,7113.000,6393.000,6217.000
1610.246,7246.000,6478.000,6209.000
1639.897,7231.000,6535.000,6238.000
1669.446,7218.000,6385.000,6184.000
1698.894,7204.000,6378.000,6255.000
1728.242,7215.000,6483.000,6255.000
1757.489,7229.000,6542.000,6258.000
1786.634,7221.000,6504.000,6207.000
1815.682,7248.000,6457.000,6220.000
1844.629,7339.000,6567.000,6262.000
1873.479,7314.000,6663.000,6417.000
1902.231,7409.000,6695.000,6420.000
1930.883,7516.000,6695.000,6402.000
1959.441,7567.000,6740.000,6555.000
1987.901,7559.000,6793.000,6523.000
2016.264,7651.000,6779.000,6603.000
2044.532,7666.000,6823.000,6554.000
2072.707,7628.000,6891.000,6623.000
2100.785,7752.000,6930.000,6698.000
2128.769,7774.000,6871.000,6718.000
2156.662,7722.000,6996.000,6608.000
2184.459,7929.000,6955.000,6797.000
2212.165,7930.000,7029.000,6796.000
2239.776,7988.000,7116.000,6786.000
2267.299,8013.000,7093.000,6873.000
2294.729,8141.000,7266.000,7021.000
2322.066,8145.000,7418.000,7037.000
2349.315,8327.000,7501.000,7155.000
2376.473,8306.000,7475.000,7133.000
2403.543,8487.000,7531.000,7372.000
2430.521,8527.000,7566.000,7401.000
2457.413,8522.000,7624.000,7374.000
2484.215,8475.000,7725.000,7418.000
2510.932,8578.000,7744.000,7456.000
2537.559,8660.000,7762.000,7422.000
2564.099,8699.000,7762.000,7443.000
2590.555,8670.000,7781.000,7512.000
2616.923,8747.000,7885.000,7517.000
2643.205,8809.000,7902.000,7695.000
2669.403,8803.000,7967.000,7670.000
2695.516,8951.000,8012.000,7775.000
2721.544,8954.000,8013.000,7760.000
2747.486,8875.000,8037.000,7812.000
2773.348,8865.000,7987.000,7883.000
2799.124,8964.000,8181.000,7872.000
2824.821,9153.000,8263.000,8099.000
2850.431,9312.000,10637.000,8189.000
2875.962,9303.000,8579.000,8279.000
2901.412,9567.000,8747.000,8415.000
2926.776,9519.000,8756.000,8451.000
2952.064,9758.000,8812.000,8586.000
2977.269,9825.000,8944.000,8743.000
3002.396,9878.000,9098.000,12159.000
3027.442,9986.000,9175.000,8920.000
3052.408,10168.000,9259.000,9013.000
3077.298,10353.000,9386.000,9059.000
3102.106,10308.000,9456.000,9196.000
3126.837,10476.000,9511.000,9394.000
3151.492,10524.000,9791.000,9514.000
3176.067,10651.000,9920.000,9615.000
3200.565,12140.000,10028.000,9777.000
3224.987,10913.000,10096.000,9853.000
3249.334,11170.000,10307.000,10028.000
3273.603,11347.000,10415.000,10170.000
3297.798,11414.000,10659.000,10424.000
3321.915,11471.000,10604.000,10452.000
3345.960,11520.000,10872.000,10558.000
3369.930,11800.000,10974.000,10725.000
3393.825,11847.000,11088.000,10848.000
3417.645,12052.000,11141.000,10874.000
3441.392,12165.000,11334.000,11137.000
3465.068,12112.000,11330.000,11088.000
3488.670,12193.000,11534.000,11215.000
3512.197,12334.000,11586.000,11362.000
3535.655,12512.000,11625.000,11569.000
3559.039,12822.000,12007.000,11764.000
3582.352,13140.000,12305.000,12022.000
3605.593,12841.000,12228.000,11979.000
3628.765,12873.000,11947.000,11835.000
3651.866,12459.000,11774.000,11504.000
3674.895,11896.000,11199.000,10933.000
3697.857,11347.000,10718.000,10501.000
3720.747,11165.000,10427.000,10292.000
3743.569,11067.000,10350.000,10230.000
3766.319,10981.000,10350.000,10020.000
3789.004,11008.000,10408.000,10230.000
3811.621,11030.000,10389.000,10212.000
3834.167,11025.000,10384.000,10096.000
3856.647,11014.000,10382.000,10185.000
3879.058,10944.000,10417.000,10204.000
3901.404,11032.000,10490.000,10340.000
3923.684,11219.000,10640.000,10409.000
3945.893,11197.000,10642.000,10416.000
3968.038,11256.000,10642.000,10579.000
3990.118,11240.000,10790.000,10518.000
4012.134,11392.000,10724.000,10529.000
4034.080,11219.000,10731.000,10559.000
4055.964,11360.000,10698.000,10609.000
4077.783,11268.000,10797.000,10559.000
4099.536,11277.000,10766.000,10626.000
4121.226,11291.000,11654.000,10680.000
4142.852,11227.000,10731.000,10556.000
4164.415,11178.000,10679.000,10552.000
4185.913,11186.000,10716.000,10505.000
4207.349,11095.000,10589.000,10431.000
4228.723,11125.000,10682.000,10579.000
4250.033,11139.000,10659.000,10518.000
4271.280,11327.000,10723.000,10623.000
4292.468,11256.000,11638.000,10524.000
4313.592,11332.000,10801.000,10618.000
4334.655,11182.000,10792.000,10620.000
4355.657,11276.000,10755.000,10578.000
4376.597,11271.000,10805.000,10697.000
4397.479,11123.000,10687.000,10448.000
4418.300,11034.000,10734.000,10495.000
4439.058,10941.000,10571.000,10380.000
4459.759,11010.000,10629.000,10407.000
4480.399,10936.000,10616.000,15242.000
4500.980,11064.000,10547.000,10363.000
4521.502,10788.000,10440.000,10244.000
4541.965,10835.000,10332.000,10192.000
4562.370,10734.000,10337.000,10241.000
4582.715,10618.000,10244.000,10089.000
4603.004,10569.000,10169.000,10120.000
4623.234,10493.000,10201.000,10122.000
4643.407,10514.000,10048.000,10105.000
4663.522,10436.000,10079.000,9991.000
4683.581,10358.000,10103.000,9924.000
4703.582,10289.000,10000.000,9740.000
4723.528,10187.000,9855.000,9739.000
4743.415,10125.000,9682.000,9689.000
4763.248,10190.000,9875.000,9731.000
4783.024,10041.000,9806.000,9635.000
4802.746,9938.000,9580.000,9630.000
4822.410,9865.000,9647.000,9466.000
4842.021,9788.000,9539.000,9462.000
4861.577,9798.000,9413.000,9352.000
4881.077,9694.000,9366.000,9440.000
4900.523,9578.000,9335.000,9246.000
4919.915,9611.000,9382.000,9243.000
4939.251,9509.000,9365.000,9178.000
4958.537,9495.000,9259.000,9123.000
4977.766,9530.000,9138.000,9144.000
4996.943,9415.000,9128.000,9107.000
5016.067,9322.000,9098.000,8982.000
5035.138,9216.000,9044.000,8898.000
5054.156,9118.000,8876.000,8895.000
5073.122,9138.000,8756.000,8648.000
5092.035,9083.000,8738.000,8746.000
5110.895,9003.000,8645.000,8646.000
5129.704,8886.000,8617.000,8617.000
5148.464,8883.000,8659.000,8503.000
5167.170,8773.000,8500.000,8493.000
5185.825,8603.000,8366.000,8417.000
5204.428,8453.000,8323.000,8258.000
5222.982,8485.000,8282.000,8213.000
5241.485,8376.000,8165.000,8094.000
5259.937,8407.000,8118.000,8101.000
5278.340,8319.000,8125.000,8081.000
5296.692,8325.000,8150.000,8117.000
5314.995,8193.000,8132.000,7976.000
5333.247,8246.000,8083.000,8032.000
5351.451,8116.000,8051.000,7947.000
5369.606,8179.000,7997.000,7979.000
5387.711,8073.000,7902.000,7801.000
5405.768,8076.000,7894.000,7782.000
5423.777,7943.000,7719.000,7785.000
5441.736,7932.000,7824.000,7645.000
5459.648,7833.000,7747.000,7560.000
5477.510,7866.000,7619.000,7637.000
5495.328,7691.000,7598.000,7493.000
5513.095,7715.000,7535.000,7480.000
5530.816,7588.000,7392.000,7398.000
5548.489,7493.000,7454.000,7326.000
5566.116,9335.000,7472.000,7449.000
5583.697,7570.000,7345.000,7379.000
5601.228,7552.000,7399.000,7350.000
5618.716,7460.000,7399.000,7288.000
5636.157,7487.000,7308.000,7311.000
5653.551,7390.000,7280.000,7235.000
5666.567,7496.000,7459.000,7365.000

File: 2025_08_22_BB1392_SiO2_8wtPctH2O_Glass_50X_532nm_750uW_Kymera328_600gv_2050wn_3accum_60s_Unpol.csv
82.904,3911.000,3881.000,3863.000
100.010,3775.000,3785.000,3778.000
117.084,3727.000,3718.000,3692.000
134.127,3640.000,3653.000,3639.000
151.140,3566.000,3585.000,3587.000
168.121,3563.000,3552.000,3566.000
185.071,3548.000,3551.000,3535.000
201.991,3517.000,3526.000,3509.000
218.880,3483.000,3515.000,3499.000
235.739,3503.000,3504.000,3510.000
252.567,3517.000,3521.000,3506.000
269.365,3516.000,3495.000,3507.000
286.132,3532.000,3539.000,3534.000
302.868,3564.000,3538.000,3553.000
319.575,3576.000,3577.000,3538.000
336.249,3555.000,3601.000,3588.000
352.895,3607.000,3624.000,3618.000
369.512,3636.000,3650.000,3640.000
386.098,3659.000,3659.000,3669.000
402.656,3692.000,3686.000,3660.000
419.182,3754.000,3727.000,3728.000
435.679,3731.000,3776.000,3743.000
452.147,3843.000,3804.000,3808.000
468.585,3859.000,3867.000,3824.000
484.994,3855.000,3857.000,3819.000
501.371,3774.000,3727.000,3748.000
517.721,3569.000,3592.000,3557.000
534.042,3474.000,3467.000,3497.000
550.333,3407.000,3415.000,3456.000
566.596,3366.000,3394.000,3370.000
582.829,3367.000,3352.000,3365.000
599.034,3344.000,3331.000,3347.000
615.210,3331.000,3338.000,3324.000
631.358,3310.000,3316.000,3313.000
647.475,3301.000,3305.000,3289.000
663.565,3307.000,3300.000,3309.000
679.626,3298.000,3289.000,3287.000
695.659,3268.000,3280.000,3283.000
711.664,3296.000,3269.000,3291.000
727.641,3293.000,3295.000,3262.000
743.588,3306.000,3279.000,3281.000
759.509,3288.000,3300.000,3302.000
775.401,3316.000,3312.000,3314.000
791.265,3326.000,3350.000,3348.000
807.100,3337.000,3327.000,3340.000
822.908,3316.000,3317.000,3327.000
838.688,3297.000,3278.000,3303.000
854.441,3280.000,3281.000,3288.000
870.167,3274.000,3285.000,3290.000
885.864,3272.000,3280.000,3282.000
901.535,3299.000,3287.000,3275.000
917.178,3311.000,3336.000,3318.000
932.794,3309.000,3324.000,3342.000
948.382,3361.000,3371.000,3386.000
963.942,3390.000,3406.000,3391.000
979.475,3400.000,3383.000,3363.000
994.983,3376.000,3351.000,3348.000
1010.462,3322.000,3310.000,3339.000
1025.915,3333.000,3311.000,3322.000
1041.342,3326.000,3332.000,3319.000
1056.741,3334.000,3322.000,3326.000
1072.115,3331.000,3319.000,3327.000
1087.461,3333.000,3333.000,3320.000
1102.779,3310.000,3321.000,3312.000
1118.072,3313.000,3298.000,3302.000
1133.339,3314.000,3320.000,3302.000
1148.579,3310.000,3328.000,3296.000
1163.793,3308.000,3316.000,3322.000
1178.982,3306.000,3311.000,3322.000
1194.142,3320.000,3307.000,3293.000
1209.279,3309.000,3307.000,3299.000
1224.388,3309.000,3302.000,3274.000
1239.472,3294.000,3292.000,3296.000
1254.528,3326.000,3292.000,3295.000
1269.561,3305.000,3293.000,3310.000
1284.567,3310.000,3297.000,3297.000
1299.548,3285.000,3307.000,3301.000
1314.503,3298.000,3282.000,3289.000
1329.432,3307.000,3297.000,3304.000
1344.337,3288.000,3289.000,3288.000
1359.216,3308.000,3313.000,3308.000
1374.068,3318.000,3300.000,3314.000
1388.895,3317.000,3318.000,3311.000
1403.698,3320.000,3296.000,3307.000
1418.476,3327.000,3304.000,3319.000
1433.228,3327.000,3310.000,3309.000
1447.956,3338.000,3323.000,3332.000
1462.658,3329.000,3322.000,3324.000
1477.336,3339.000,3327.000,3307.000
1491.989,3348.000,3323.000,3328.000
1506.618,3305.000,3343.000,3318.000
1521.221,3322.000,3333.000,3354.000
1535.799,3342.000,3352.000,3335.000
1550.351,3347.000,3349.000,3339.000
1564.881,3343.000,3356.000,3325.000
1579.386,3344.000,3329.000,3368.000
1593.867,3338.000,3347.000,3342.000
1608.324,3356.000,3353.000,3358.000
1622.756,3360.000,3346.000,3355.000
1637.164,3363.000,3371.000,3335.000
1651.548,3345.000,3342.000,3361.000
1665.907,3335.000,3369.000,3372.000
1680.242,3363.000,3351.000,3355.000
1694.554,3351.000,3361.000,3352.000
1708.841,3359.000,3370.000,3389.000
1723.105,3357.000,3356.000,3348.000
1737.346,3340.000,3342.000,3357.000
1751.561,3335.000,3384.000,3358.000
1765.755,3370.000,3353.000,3360.000
1779.923,4033.000,3347.000,3356.000
1794.069,3363.000,3378.000,3361.000
1808.191,3366.000,3354.000,3376.000
1822.288,3369.000,3377.000,3371.000
1836.363,3368.000,3361.000,3366.000
1850.415,3378.000,3361.000,3380.000
1864.444,3364.000,3362.000,3366.000
1878.449,3380.000,3382.000,3368.000
1892.432,3398.000,3389.000,3655.000
1906.391,3383.000,3376.000,3392.000
1920.327,3377.000,3405.000,3396.000
1934.240,3411.000,3406.000,3404.000
1948.128,3391.000,3401.000,3383.000
1961.996,3392.000,3392.000,3390.000
1975.841,3417.000,3415.000,3374.000
1989.663,3393.000,3385.000,3398.000
2003.462,3406.000,3400.000,3390.000
2017.238,3406.000,3401.000,3402.000
2030.993,3396.000,3420.000,3411.000
2044.724,3407.000,3414.000,3390.000
2058.433,3431.000,3398.000,3399.000
2072.120,3422.000,3424.000,3427.000
2085.784,3429.000,3420.000,3416.000
2099.424,3430.000,3429.000,3425.000
2113.044,3416.000,3410.000,3424.000
2126.641,3423.000,3420.000,3419.000
2140.216,3399.000,3429.000,3420.000
2153.769,3430.000,3398.000,3432.000
2167.300,3467.000,3422.000,3415.000
2180.810,3423.000,3428.000,3450.000
2194.297,3423.000,3422.000,3413.000
2207.760,3446.000,3427.000,3449.000
2221.204,3438.000,3424.000,3426.000
2234.625,3443.000,3441.000,3442.000
2248.026,3452.000,3457.000,3414.000
2261.404,3460.000,3457.000,3444.000
2274.761,3476.000,3444.000,3453.000
2288.096,3461.000,3452.000,3450.000
2301.409,3455.000,3453.000,3456.000
2314.702,3473.000,3478.000,3467.000
2327.973,3479.000,3468.000,3463.000
2341.222,3477.000,3481.000,3474.000
2354.449,3496.000,3494.000,3494.000
2367.656,3482.000,3475.000,3494.000
2380.842,3495.000,3487.000,3485.000
2394.006,3510.000,3472.000,3507.000
2407.149,3466.000,3481.000,3491.000
2420.272,3491.000,3512.000,3477.000
2433.373,3515.000,3495.000,3484.000
2446.454,3491.000,3503.000,3491.000
2459.512,3518.000,3506.000,3484.000
2472.550,3505.000,3500.000,3501.000
2485.569,3501.000,3498.000,3511.000
2498.566,3487.000,3518.000,3506.000
2511.543,3500.000,3497.000,3507.000
2524.498,3487.000,3502.000,3499.000
2537.433,3522.000,3513.000,3542.000
2550.348,3520.000,3495.000,3520.000
2563.243,3534.000,3523.000,3530.000
2576.116,3511.000,3523.000,3529.000
2588.969,3538.000,3532.000,3537.000
2601.800,3537.000,3528.000,3527.000
2614.613,3560.000,3536.000,3550.000
2627.406,3547.000,3537.000,3552.000
2640.178,3539.000,3528.000,3523.000
2652.930,3566.000,3532.000,3531.000
2665.662,3564.000,3520.000,3567.000
2678.374,3552.000,3587.000,3542.000
2691.067,3556.000,3564.000,3553.000
2703.738,3563.000,3574.000,3547.000
2716.388,3550.000,3569.000,3582.000
2729.020,3578.000,3585.000,3572.000
2741.633,3594.000,3579.000,3551.000
2754.225,3566.000,3566.000,3557.000
2766.798,3586.000,3581.000,3557.000
2779.351,3598.000,3581.000,3592.000
2791.885,3611.000,3574.000,3610.000
2804.398,3603.000,3590.000,3562.000
2816.893,3612.000,3605.000,3608.000
2829.368,3597.000,3618.000,3585.000
2841.821,3644.000,3592.000,3632.000
2854.258,3613.000,3628.000,3623.000
2866.673,3670.000,3623.000,3614.000
2879.070,3612.000,3655.000,3630.000
2891.449,3660.000,3661.000,3642.000
2903.807,3625.000,3647.000,3671.000
2916.147,3671.000,3638.000,3670.000
2928.468,3675.000,3662.000,3663.000
2940.768,3679.000,3672.000,3681.000
2953.049,3695.000,3692.000,3702.000
2965.312,3678.000,3668.000,3695.000
2977.557,3675.000,3717.000,3668.000
2989.781,3699.000,3693.000,3670.000
3001.989,3716.000,3716.000,3697.000
3014.176,3707.000,3712.000,3705.000
3026.345,3742.000,3752.000,3742.000
3038.494,3758.000,3776.000,3738.000
3050.626,3725.000,3769.000,3775.000
3062.739,3713.000,3727.000,3754.000
3074.832,3795.000,3786.000,3756.000
3086.907,3787.000,3764.000,3762.000
3098.964,3763.000,3798.000,3759.000
3111.002,3780.000,3763.000,3803.000
3123.022,3790.000,3781.000,3797.000
3135.023,3824.000,3794.000,3789.000
3147.006,3787.000,3795.000,3828.000
3158.971,3823.000,3824.000,3817.000
3170.918,3844.000,3828.000,3845.000
3182.844,3864.000,3840.000,3822.000
3194.755,3811.000,3857.000,3879.000
3206.647,3846.000,3868.000,3841.000
3218.521,3855.000,3901.000,3877.000
3230.377,3887.000,3907.000,3889.000
3242.215,3910.000,3899.000,3870.000
3254.035,3910.000,3915.000,3866.000
3265.836,3959.000,3895.000,3903.000
3277.621,3904.000,3951.000,3933.000
3289.387,3922.000,3943.000,3983.000
3301.134,3929.000,3961.000,3948.000
3312.863,4001.000,3990.000,3972.000
3324.577,4030.000,3959.000,3965.000
3336.272,4006.000,3955.000,3950.000
3347.948,4028.000,3982.000,3966.000
3359.608,3992.000,3992.000,4012.000
3371.250,3972.000,3964.000,4017.000
3382.875,4052.000,4031.000,4012.000
3394.482,4039.000,4043.000,4029.000
3406.072,4058.000,4068.000,4048.000
3417.643,4055.000,4089.000,4117.000
3429.197,4071.000,4029.000,4061.000
3440.735,4100.000,4078.000,4063.000
3452.255,4086.000,4119.000,4109.000
3463.758,4113.000,4080.000,4087.000
3475.244,4092.000,4132.000,4111.000
3486.712,4140.000,4117.000,4132.000
3498.162,4133.000,4137.000,4144.000
3509.597,4097.000,4155.000,4082.000
3521.015,4165.000,4125.000,4159.000
3532.413,4153.000,4163.000,4165.000
3543.796,4136.000,4173.000,4206.000
3555.162,4204.000,4198.000,4189.000
3566.511,4253.000,4224.000,4223.000
3577.843,4274.000,4287.000,4314.000
3589.158,4295.000,4315.000,4276.000
3600.458,4304.000,4329.000,4322.000
3611.739,4298.000,4334.000,4368.000
3623.004,4293.000,4271.000,4317.000
3631.442,4328.000,4327.000,4276.000