Folder: Data/Raman/Silica (part 78)

File: 2025_08_23_SiO2_8H2O_Glass_50X_532nm_12mW_Andor750_600gv_1030wn_3accum_90s_UnPol_Pos2.csv
23.130,7164.000,7159.000,7107.000
30.879,5795.000,5819.000,5825.000
38.619,6436.000,6365.000,6416.000
46.355,7262.000,7271.000,7265.000
54.083,7540.000,7591.000,7683.000
61.807,7470.000,7365.000,7481.000
69.523,7604.000,7733.000,7726.000
77.233,7245.000,7342.000,7368.000
84.936,6999.000,6946.000,6995.000
92.632,6827.000,6841.000,6907.000
100.323,6580.000,6488.000,6683.000
108.007,6137.000,6204.000,6240.000
115.685,6111.000,5995.000,6064.000
123.359,5846.000,5859.000,5861.000
131.024,5512.000,5444.000,5492.000
138.683,5391.000,5363.000,5313.000
146.335,5187.000,5125.000,5222.000
153.982,4913.000,4919.000,4903.000
161.621,4724.000,4703.000,4791.000
169.256,4691.000,4721.000,4697.000
176.883,4539.000,4514.000,4530.000
184.504,4419.000,4434.000,4441.000
192.122,4367.000,4385.000,4392.000
199.731,4272.000,4353.000,4272.000
207.333,4111.000,4191.000,4250.000
214.929,4311.000,4257.000,4340.000
222.519,4191.000,4220.000,4274.000
230.104,4087.000,4133.000,4169.000
237.681,4164.000,4250.000,4267.000
245.253,4114.000,4191.000,4175.000
252.819,4192.000,4211.000,4174.000
260.380,4237.000,4273.000,4251.000
267.933,4307.000,4233.000,4224.000
275.480,4249.000,4250.000,4238.000
283.021,4305.000,4325.000,4377.000
290.556,4336.000,4276.000,4394.000
298.084,4406.000,4417.000,4391.000
305.607,4555.000,4555.000,4592.000
313.123,4624.000,4589.000,4551.000
320.635,4631.000,4611.000,4555.000
328.139,4697.000,4733.000,4702.000
335.638,4752.000,4891.000,4855.000
343.130,4958.000,4873.000,4937.000
350.616,5059.000,5043.000,5104.000
358.095,5184.000,5123.000,5188.000
365.569,5298.000,5286.000,5310.000
373.037,5469.000,5491.000,5468.000
380.498,5439.000,5490.000,5456.000
387.956,5575.000,5645.000,5578.000
395.405,5789.000,5803.000,5823.000
402.849,5791.000,5687.000,5834.000
410.287,5927.000,5940.000,5959.000
417.719,6100.000,6153.000,6013.000
425.144,6117.000,6201.000,6103.000
432.563,6302.000,6373.000,6363.000
439.977,6531.000,6582.000,6553.000
447.386,6699.000,6724.000,6677.000
454.788,6903.000,6912.000,6952.000
462.183,7037.000,7109.000,7085.000
469.574,7301.000,7293.000,7426.000
476.957,7562.000,7592.000,7583.000
484.335,7752.000,7693.000,7639.000
491.706,7607.000,7579.000,7619.000
499.072,6826.000,6953.000,6963.000
506.432,5843.000,5818.000,5942.000
513.788,4910.000,4859.000,4898.000
521.136,4228.000,4117.000,4148.000
528.479,3634.000,3656.000,3620.000
535.815,3344.000,3361.000,3393.000
543.145,3122.000,3112.000,3182.000
550.469,3010.000,2969.000,2998.000
557.788,2865.000,2797.000,2824.000
565.100,2670.000,2675.000,2669.000
572.408,2556.000,2511.000,2529.000
579.711,2486.000,2453.000,2473.000
587.006,2318.000,2343.000,2331.000
594.295,2257.000,2224.000,2300.000
601.579,2209.000,2167.000,2233.000
608.856,2116.000,2124.000,2112.000
616.129,2034.000,2041.000,2014.000
623.394,1984.000,1956.000,1961.000
630.655,1881.000,1870.000,1868.000
637.911,1894.000,1821.000,1868.000
645.160,1802.000,1789.000,1828.000
652.403,1801.000,1825.000,1803.000
659.640,1789.000,1793.000,1784.000
666.872,1767.000,1722.000,1682.000
674.097,1730.000,1749.000,1727.000
681.317,1789.000,1720.000,1707.000
688.531,1698.000,1689.000,1653.000
695.739,1682.000,1680.000,1680.000
702.944,1692.000,1694.000,1681.000
710.141,1673.000,1637.000,1689.000
717.332,1715.000,1647.000,1668.000
724.517,1662.000,1622.000,1633.000
731.697,1645.000,1682.000,1634.000
738.871,1649.000,1658.000,1636.000
746.039,1619.000,1664.000,1638.000
753.202,1636.000,1649.000,1606.000
760.360,1675.000,1671.000,1664.000
767.512,1766.000,1716.000,1743.000
774.657,1916.000,1868.000,1925.000
781.797,2108.000,2142.000,2083.000
788.932,2203.000,2157.000,2202.000
796.060,2268.000,2222.000,2227.000
803.184,2176.000,2172.000,2201.000
810.301,2134.000,2137.000,2130.000
817.413,2061.000,2069.000,2050.000
824.520,1985.000,1961.000,1963.000
831.622,1878.000,1893.000,1900.000
838.716,1719.000,1755.000,1758.000
845.806,1631.000,1657.000,1612.000
852.890,1539.000,1552.000,1540.000
859.968,1562.000,1521.000,1521.000
867.040,1542.000,1508.000,1559.000
874.106,1554.000,1556.000,1551.000
881.168,1554.000,1577.000,1562.000
888.226,1637.000,1610.000,1608.000
895.276,1631.000,1664.000,1645.000
902.321,1700.000,1691.000,1685.000
909.360,1754.000,1755.000,1735.000
916.393,1777.000,1774.000,1763.000
923.422,1866.000,1872.000,1896.000
930.444,1967.000,1904.000,1960.000
937.461,2097.000,2067.000,2034.000
944.475,2170.000,2212.000,2178.000
951.481,2356.000,2324.000,2279.000
958.482,2487.000,2515.000,2467.000
965.476,2600.000,2606.000,2618.000
972.466,2603.000,2605.000,2617.000
979.451,2588.000,2591.000,2581.000
986.428,2346.000,2354.000,2384.000
993.402,2129.000,2086.000,2091.000
1000.369,1950.000,1955.000,1907.000
1007.333,1750.000,1766.000,1791.000
1014.290,1712.000,1718.000,1697.000
1021.241,1665.000,1663.000,1673.000
1028.188,1668.000,1664.000,1631.000
1035.128,1659.000,1653.000,1605.000
1042.063,1637.000,1629.000,1688.000
1048.994,1710.000,1667.000,1685.000
1055.917,1665.000,1656.000,1656.000
1062.838,1682.000,1697.000,1637.000
1069.752,1657.000,1632.000,1663.000
1076.660,1610.000,1595.000,1597.000
1083.562,1582.000,1607.000,1581.000
1090.460,1547.000,1512.000,1579.000
1097.351,1504.000,1490.000,1475.000
1104.238,1478.000,1472.000,1448.000
1111.120,1431.000,1397.000,1379.000
1117.995,1429.000,1450.000,1390.000
1124.867,1457.000,1434.000,1411.000
1131.733,1455.000,1427.000,1449.000
1138.593,1461.000,1432.000,1453.000
1145.447,1447.000,1456.000,1432.000
1152.297,1499.000,1482.000,1457.000
1159.141,1529.000,1472.000,1454.000
1165.979,1494.000,1483.000,1483.000
1172.813,1476.000,1494.000,1494.000
1179.641,1488.000,1456.000,1470.000
1186.465,1430.000,1440.000,1435.000
1193.282,1487.000,1443.000,1420.000
1200.095,1451.000,1462.000,1444.000
1206.902,1444.000,1452.000,1416.000
1213.703,1429.000,1405.000,1426.000
1220.499,1439.000,1379.000,1366.000
1227.291,1402.000,1370.000,1368.000
1234.076,1351.000,1339.000,1349.000
1240.858,1320.000,1334.000,1310.000
1247.634,1327.000,1307.000,1292.000
1254.405,1306.000,1286.000,1269.000
1261.170,1292.000,1290.000,1273.000
1267.929,1313.000,1279.000,1307.000
1274.683,1332.000,1300.000,1299.000
1281.433,1274.000,1258.000,1268.000
1288.177,1264.000,1254.000,1254.000
1294.916,1249.000,1232.000,1248.000
1301.652,1234.000,1262.000,1230.000
1308.380,1236.000,1249.000,1236.000
1315.104,1232.000,1258.000,1220.000
1321.822,1246.000,1262.000,1263.000
1328.535,1223.000,1232.000,1221.000
1335.243,1264.000,1220.000,1222.000
1341.946,1246.000,1268.000,1205.000
1348.643,1258.000,1235.000,1229.000
1355.337,1278.000,1268.000,1231.000
1362.025,1279.000,1255.000,1239.000
1368.707,1291.000,1264.000,1260.000
1375.384,1467.000,1435.000,1434.000
1382.057,1347.000,1347.000,1301.000
1388.723,1289.000,1258.000,1258.000
1395.385,1304.000,1269.000,1246.000
1402.042,1279.000,1277.000,1237.000
1408.692,1275.000,1253.000,1261.000
1415.341,1281.000,1237.000,1247.000
1421.982,1279.000,1272.000,1271.000
1428.619,1293.000,1270.000,1249.000
1435.250,1286.000,1245.000,1252.000
1441.877,1279.000,1258.000,1249.000
1448.497,1249.000,1259.000,1262.000
1455.114,1324.000,1293.000,1245.000
1461.725,1276.000,1254.000,1253.000
1468.331,1307.000,1289.000,1273.000
1474.934,1310.000,1250.000,1263.000
1481.530,1322.000,1296.000,1295.000
1488.120,1315.000,1325.000,1290.000
1494.707,1315.000,1301.000,1299.000
1501.287,1319.000,1337.000,1259.000
1507.863,1307.000,1323.000,1294.000
1514.435,1326.000,1291.000,1289.000
1521.001,1312.000,1309.000,1269.000
1527.561,1358.000,1323.000,1278.000
1534.118,1346.000,1354.000,1275.000
1540.670,1372.000,1306.000,1275.000
1547.216,1363.000,1372.000,1359.000
1553.756,1383.000,1355.000,1323.000
1560.293,1350.000,1385.000,1374.000
1566.824,1380.000,1366.000,1342.000
1573.350,1420.000,1375.000,1322.000
1579.872,1393.000,1368.000,1338.000
1586.390,1401.000,1388.000,1368.000
1592.901,1444.000,1386.000,1395.000
1599.408,1454.000,1397.000,1412.000
1605.909,1473.000,1440.000,1406.000
1612.405,1470.000,1430.000,1415.000
1618.898,1479.000,1433.000,1423.000
1625.384,1454.000,1397.000,1449.000
1631.866,1401.000,1418.000,1390.000
1638.345,1416.000,1387.000,1381.000
1644.816,1385.000,1396.000,1357.000
1651.285,1390.000,1376.000,1361.000
1657.747,1393.000,1368.000,1345.000
1664.204,1369.000,1385.000,1329.000
1670.656,1347.000,1336.000,1320.000
1677.104,1365.000,1330.000,1343.000
1683.548,1371.000,1354.000,1339.000
1689.986,1361.000,1319.000,1333.000
1696.420,1345.000,1349.000,1344.000
1702.848,1349.000,1332.000,1284.000
1709.272,1352.000,1346.000,1293.000
1715.691,1345.000,1317.000,1338.000
1722.105,1347.000,1318.000,1348.000
1728.514,1344.000,1346.000,1325.000
1734.918,1370.000,1325.000,1319.000
1741.318,1371.000,1339.000,1306.000
1747.712,1345.000,1331.000,1335.000
1754.104,1362.000,1336.000,1316.000
1760.489,1385.000,1348.000,1346.000
1766.870,1394.000,1359.000,1357.000
1773.245,1377.000,1352.000,1337.000
1779.616,1372.000,1372.000,1367.000
1785.982,1372.000,1343.000,1372.000
1792.343,1410.000,1393.000,1386.000
1798.700,1406.000,1364.000,1386.000
1805.052,1424.000,1387.000,1366.000
1811.400,1430.000,1382.000,1416.000
1816.157,1481.000,1437.000,1416.000

File: 2025_08_23_SiO2_8H2O_Glass_50X_532nm_12mW_Andor750_1200gv_480wn_3accum_30s_UnPol_Pos7.csv
7.043,1577.000,1565.000,1563.000
10.712,1473.000,1518.000,1481.000
14.379,1559.000,1500.000,1483.000
18.044,1561.000,1516.000,1523.000
21.709,1600.000,1608.000,1572.000
25.372,1602.000,1576.000,1587.000
29.034,1715.000,1672.000,1698.000
32.695,1763.000,1766.000,1751.000
36.351,1749.000,1688.000,1703.000
40.009,1810.000,1775.000,1793.000
43.666,1783.000,1766.000,1747.000
47.320,1803.000,1759.000,1770.000
50.973,1763.000,1748.000,1759.000
54.623,1837.000,1837.000,1834.000
58.274,1723.000,1700.000,1676.000
61.923,1729.000,1711.000,1746.000
65.570,1741.000,1734.000,1698.000
69.217,1660.000,1626.000,1639.000
72.859,1727.000,1660.000,1692.000
76.503,1669.000,1663.000,1637.000
80.146,1617.000,1640.000,1616.000
83.786,1649.000,1652.000,1632.000
87.425,1686.000,1701.000,1667.000
91.061,1641.000,1572.000,1579.000
94.698,1626.000,1585.000,1566.000
98.332,1601.000,1584.000,1574.000
101.965,1599.000,1585.000,1573.000
105.595,1546.000,1511.000,1508.000
109.226,1573.000,1584.000,1516.000
112.856,1561.000,1510.000,1539.000
116.484,1489.000,1473.000,1459.000
120.110,1497.000,1470.000,1484.000
123.733,1472.000,1440.000,1456.000
127.357,1442.000,1423.000,1398.000
130.980,1482.000,1446.000,1423.000
134.600,1435.000,1473.000,1454.000
138.219,1381.000,1405.000,1370.000
141.835,1425.000,1365.000,1362.000
145.452,1390.000,1387.000,1384.000
149.067,1380.000,1336.000,1330.000
152.681,1383.000,1373.000,1351.000
156.294,1374.000,1375.000,1335.000
159.903,1345.000,1337.000,1338.000
163.512,1322.000,1360.000,1331.000
167.121,1367.000,1343.000,1346.000
170.727,1356.000,1306.000,1315.000
174.333,1334.000,1321.000,1308.000
177.935,1376.000,1348.000,1315.000
181.538,1371.000,1314.000,1283.000
185.138,1311.000,1277.000,1306.000
188.739,1342.000,1316.000,1316.000
192.337,1299.000,1293.000,1309.000
195.932,1310.000,1303.000,1295.000
199.527,1320.000,1307.000,1290.000
203.122,1329.000,1320.000,1264.000
206.715,1279.000,1284.000,1284.000
210.306,1357.000,1314.000,1291.000
213.895,1323.000,1289.000,1272.000
217.483,1304.000,1297.000,1282.000
221.071,1308.000,1314.000,1278.000
224.657,1323.000,1308.000,1285.000
228.241,1306.000,1292.000,1296.000
231.823,1304.000,1288.000,1275.000
235.404,1324.000,1319.000,1303.000
238.985,1321.000,1304.000,1262.000
242.564,1319.000,1289.000,1262.000
246.142,1369.000,1322.000,1283.000
249.716,1331.000,1311.000,1301.000
253.291,1297.000,1315.000,1303.000
256.864,1350.000,1304.000,1291.000
260.437,1332.000,1324.000,1311.000
264.005,1323.000,1297.000,1288.000
267.575,1303.000,1336.000,1303.000
271.144,1347.000,1301.000,1296.000
274.709,1332.000,1312.000,1288.000
278.275,1336.000,1349.000,1320.000
281.838,1379.000,1324.000,1340.000
285.400,1350.000,1330.000,1303.000
288.961,1353.000,1359.000,1323.000
292.521,1372.000,1352.000,1315.000
296.079,1371.000,1343.000,1345.000
299.634,1379.000,1342.000,1353.000
303.190,1411.000,1390.000,1366.000
306.745,1388.000,1391.000,1353.000
310.298,1374.000,1347.000,1384.000
313.849,1413.000,1354.000,1363.000
317.397,1388.000,1373.000,1396.000
320.946,1428.000,1402.000,1421.000
324.493,1399.000,1404.000,1386.000
328.039,1479.000,1389.000,1415.000
331.584,1408.000,1442.000,1428.000
335.125,1462.000,1438.000,1393.000
338.668,1497.000,1444.000,1407.000
342.209,1459.000,1403.000,1426.000
345.748,1498.000,1448.000,1449.000
349.286,1525.000,1481.000,1499.000
352.821,1507.000,1446.000,1471.000
356.356,1516.000,1484.000,1469.000
359.891,1548.000,1494.000,1477.000
363.423,1528.000,1465.000,1495.000
366.955,1546.000,1489.000,1509.000
370.482,1528.000,1537.000,1510.000
374.011,1622.000,1553.000,1534.000
377.538,1577.000,1554.000,1528.000
381.064,1587.000,1559.000,1529.000
384.588,1584.000,1548.000,1549.000
388.110,1592.000,1558.000,1522.000
391.631,1602.000,1515.000,1564.000
395.152,1567.000,1576.000,1542.000
398.671,1622.000,1563.000,1603.000
402.189,1588.000,1582.000,1570.000
405.702,1669.000,1619.000,1595.000
409.218,1633.000,1616.000,1627.000
412.731,1615.000,1611.000,1616.000
416.244,1660.000,1612.000,1625.000
419.752,1672.000,1613.000,1613.000
423.262,1694.000,1669.000,1607.000
426.771,1662.000,1647.000,1628.000
430.278,1704.000,1687.000,1684.000
433.784,1724.000,1676.000,1682.000
437.286,1712.000,1693.000,1688.000
440.789,1733.000,1705.000,1693.000
444.290,1774.000,1726.000,1733.000
447.791,1801.000,1712.000,1702.000
451.291,1756.000,1765.000,1728.000
454.785,1810.000,1823.000,1782.000
458.282,1793.000,1772.000,1783.000
461.777,1849.000,1792.000,1796.000
465.271,1811.000,1837.000,1813.000
468.763,1807.000,1853.000,1814.000
472.252,1866.000,1801.000,1832.000
475.742,1834.000,1841.000,1833.000
479.230,1876.000,1857.000,1864.000
482.717,1802.000,1794.000,1802.000
486.203,1783.000,1754.000,1759.000
489.685,1751.000,1719.000,1704.000
493.169,1639.000,1641.000,1617.000
496.651,1604.000,1543.000,1542.000
500.130,1543.000,1495.000,1503.000
503.610,1494.000,1403.000,1374.000
507.085,1405.000,1389.000,1343.000
510.562,1371.000,1338.000,1288.000
514.037,1296.000,1293.000,1287.000
517.511,1279.000,1249.000,1239.000
520.984,1287.000,1222.000,1233.000
524.453,1259.000,1229.000,1207.000
527.922,1240.000,1187.000,1186.000
531.391,1191.000,1179.000,1186.000
534.858,1210.000,1178.000,1160.000
538.324,1221.000,1178.000,1165.000
541.786,1176.000,1170.000,1135.000
545.249,1174.000,1133.000,1156.000
548.712,1177.000,1153.000,1125.000
552.173,1179.000,1119.000,1135.000
555.631,1158.000,1125.000,1107.000
559.088,1137.000,1095.000,1120.000
562.544,1141.000,1105.000,1100.000
565.999,1151.000,1093.000,1094.000
569.453,1112.000,1090.000,1062.000
572.906,1134.000,1111.000,1062.000
576.355,1083.000,1058.000,1051.000
579.806,1098.000,1071.000,1061.000
583.255,1093.000,1050.000,1055.000
586.702,1085.000,1083.000,1044.000
590.148,1085.000,1076.000,1053.000
593.592,1092.000,1049.000,1057.000
597.036,1068.000,1062.000,1031.000
600.478,1075.000,1061.000,1019.000
603.919,1066.000,1057.000,1009.000
607.357,1082.000,1055.000,1024.000
610.795,1078.000,1008.000,1002.000
614.232,1059.000,1026.000,999.000
617.668,1049.000,1007.000,998.000
621.102,1019.000,997.000,1007.000
624.534,1024.000,996.000,999.000
627.966,1059.000,1015.000,1002.000
631.397,1018.000,1001.000,1017.000
634.825,1023.000,1007.000,967.000
638.254,1025.000,992.000,974.000
641.678,1026.000,991.000,954.000
645.103,1026.000,988.000,991.000
648.528,1031.000,984.000,979.000
651.951,1050.000,1010.000,977.000
655.372,1020.000,1010.000,998.000
658.790,1005.000,1003.000,980.000
662.209,1009.000,981.000,979.000
665.627,1035.000,992.000,979.000
669.044,1015.000,974.000,967.000
672.459,998.000,971.000,982.000
675.871,1010.000,1011.000,975.000
679.284,1007.000,979.000,980.000
682.695,1036.000,987.000,973.000
686.105,1020.000,986.000,937.000
689.514,990.000,982.000,962.000
692.919,1006.000,954.000,963.000
696.325,1011.000,982.000,938.000
699.730,1012.000,976.000,927.000
703.134,1028.000,964.000,938.000
706.536,991.000,971.000,959.000
709.935,1009.000,986.000,972.000
713.334,1033.000,989.000,947.000
716.734,1004.000,965.000,960.000
720.131,1016.000,980.000,959.000
723.527,1008.000,982.000,985.000
726.919,1010.000,971.000,979.000
730.312,1013.000,960.000,973.000
733.705,1025.000,975.000,970.000
737.096,1022.000,975.000,965.000
740.482,1029.000,971.000,953.000
743.871,1025.000,979.000,959.000
747.258,1031.000,970.000,962.000
750.644,1025.000,982.000,976.000
754.029,1016.000,982.000,964.000
757.409,1033.000,997.000,967.000
760.792,1034.000,1008.000,971.000
764.172,1045.000,1004.000,955.000
767.551,1054.000,1001.000,1001.000
770.930,1084.000,1014.000,991.000
774.305,1064.000,1020.000,1035.000
777.681,1092.000,1065.000,1048.000
781.054,1111.000,1074.000,1048.000
784.428,1123.000,1061.000,1053.000
787.799,1112.000,1075.000,1060.000
791.169,1117.000,1077.000,1063.000
794.538,1102.000,1060.000,1055.000
797.905,1110.000,1073.000,1033.000
801.272,1127.000,1065.000,1055.000
804.638,1123.000,1059.000,1049.000
808.000,1126.000,1069.000,1041.000
811.363,1079.000,1061.000,1051.000
814.725,1097.000,1039.000,1072.000
818.085,1097.000,1045.000,1039.000
821.445,1084.000,1023.000,1008.000
824.801,1060.000,1031.000,1024.000
828.157,1078.000,1037.000,1014.000
831.513,1056.000,1003.000,997.000
834.867,1053.000,1003.000,1001.000
838.220,1039.000,1028.000,980.000
841.569,1023.000,1004.000,970.000
844.920,1037.000,972.000,972.000
848.269,1039.000,976.000,967.000
851.617,1024.000,996.000,962.000
854.964,1039.000,967.000,954.000
858.308,1037.000,969.000,973.000
861.652,1035.000,980.000,968.000
864.994,1050.000,990.000,953.000
868.337,1056.000,1000.000,973.000
871.677,1033.000,998.000,961.000
875.014,1036.000,1009.000,978.000
878.352,1021.000,999.000,977.000
881.690,1055.000,1024.000,975.000
885.025,1055.000,1006.000,989.000
888.359,1047.000,1012.000,992.000
891.690,1094.000,1011.000,972.000
895.021,1079.000,1032.000,999.000
898.352,1099.000,1057.000,1001.000
900.849,1120.000,1049.000,1011.000