Folder: Data/Raman/Silica (part 81)

File: 2025_08_23_SiO2_Glass_50X_532nm_12mW_Andor750_1200gv_480wn_3accum_30s_UnPol_Pos7.csv
7.043,917.000,916.000,904.000
10.712,901.000,891.000,920.000
14.379,918.000,904.000,898.000
18.044,970.000,953.000,963.000
21.709,1062.000,1042.000,1043.000
25.372,1060.000,1055.000,1043.000
29.034,1111.000,1098.000,1101.000
32.695,1179.000,1188.000,1147.000
36.351,1137.000,1129.000,1140.000
40.009,1214.000,1223.000,1206.000
43.666,1198.000,1196.000,1217.000
47.320,1221.000,1186.000,1223.000
50.973,1190.000,1185.000,1180.000
54.623,1274.000,1247.000,1248.000
58.274,1178.000,1171.000,1166.000
61.923,1196.000,1158.000,1191.000
65.570,1208.000,1168.000,1193.000
69.217,1176.000,1169.000,1172.000
72.859,1199.000,1185.000,1158.000
76.503,1193.000,1176.000,1177.000
80.146,1180.000,1160.000,1167.000
83.786,1171.000,1151.000,1155.000
87.425,1215.000,1216.000,1214.000
91.061,1157.000,1165.000,1153.000
94.698,1188.000,1152.000,1192.000
98.332,1123.000,1143.000,1151.000
101.965,1181.000,1147.000,1178.000
105.595,1099.000,1113.000,1102.000
109.226,1145.000,1124.000,1126.000
112.856,1127.000,1155.000,1123.000
116.484,1109.000,1101.000,1117.000
120.110,1115.000,1115.000,1091.000
123.733,1140.000,1102.000,1113.000
127.357,1091.000,1093.000,1070.000
130.980,1099.000,1095.000,1087.000
134.600,1118.000,1092.000,1107.000
138.219,1058.000,1075.000,1082.000
141.835,1083.000,1069.000,1088.000
145.452,1070.000,1102.000,1069.000
149.067,1075.000,1077.000,1054.000
152.681,1054.000,1046.000,1070.000
156.294,1051.000,1050.000,1059.000
159.903,1065.000,1063.000,1070.000
163.512,1087.000,1059.000,1058.000
167.121,1100.000,1057.000,1067.000
170.727,1075.000,1060.000,1092.000
174.333,1070.000,1081.000,1052.000
177.935,1076.000,1068.000,1062.000
181.538,1080.000,1087.000,1047.000
185.138,1063.000,1055.000,1082.000
188.739,1065.000,1075.000,1078.000
192.337,1081.000,1071.000,1075.000
195.932,1088.000,1086.000,1063.000
199.527,1076.000,1076.000,1094.000
203.122,1089.000,1086.000,1074.000
206.715,1075.000,1075.000,1107.000
210.306,1085.000,1104.000,1079.000
213.895,1102.000,1076.000,1097.000
217.483,1102.000,1114.000,1078.000
221.071,1101.000,1101.000,1107.000
224.657,1106.000,1115.000,1120.000
228.241,1113.000,1099.000,1101.000
231.823,1109.000,1098.000,1094.000
235.404,1125.000,1107.000,1148.000
238.985,1139.000,1118.000,1130.000
242.564,1131.000,1111.000,1124.000
246.142,1125.000,1129.000,1123.000
249.716,1131.000,1123.000,1162.000
253.291,1139.000,1147.000,1135.000
256.864,1183.000,1159.000,1163.000
260.437,1192.000,1177.000,1158.000
264.005,1162.000,1174.000,1152.000
267.575,1184.000,1208.000,1168.000
271.144,1187.000,1171.000,1215.000
274.709,1226.000,1202.000,1193.000
278.275,1232.000,1217.000,1218.000
281.838,1241.000,1222.000,1227.000
285.400,1217.000,1234.000,1234.000
288.961,1213.000,1234.000,1243.000
292.521,1275.000,1235.000,1253.000
296.079,1206.000,1251.000,1243.000
299.634,1265.000,1246.000,1247.000
303.190,1289.000,1259.000,1252.000
306.745,1267.000,1274.000,1249.000
310.298,1274.000,1274.000,1268.000
313.849,1289.000,1273.000,1290.000
317.397,1268.000,1297.000,1276.000
320.946,1274.000,1279.000,1290.000
324.493,1294.000,1268.000,1312.000
328.039,1317.000,1296.000,1308.000
331.584,1312.000,1306.000,1334.000
335.125,1307.000,1332.000,1300.000
338.668,1343.000,1316.000,1283.000
342.209,1364.000,1328.000,1348.000
345.748,1350.000,1349.000,1347.000
349.286,1349.000,1346.000,1352.000
352.821,1365.000,1390.000,1357.000
356.356,1381.000,1391.000,1363.000
359.891,1363.000,1385.000,1389.000
363.423,1415.000,1407.000,1352.000
366.955,1427.000,1407.000,1365.000
370.482,1418.000,1386.000,1397.000
374.011,1431.000,1416.000,1427.000
377.538,1407.000,1387.000,1407.000
381.064,1433.000,1431.000,1445.000
384.588,1443.000,1446.000,1429.000
388.110,1445.000,1456.000,1422.000
391.631,1425.000,1456.000,1410.000
395.152,1448.000,1459.000,1418.000
398.671,1432.000,1457.000,1424.000
402.189,1479.000,1440.000,1419.000
405.702,1453.000,1460.000,1421.000
409.218,1492.000,1480.000,1461.000
412.731,1453.000,1456.000,1439.000
416.244,1474.000,1478.000,1474.000
419.752,1479.000,1455.000,1441.000
423.262,1469.000,1457.000,1454.000
426.771,1482.000,1498.000,1467.000
430.278,1473.000,1470.000,1471.000
433.784,1484.000,1470.000,1467.000
437.286,1662.000,1502.000,1467.000
440.789,1431.000,1457.000,1450.000
444.290,1468.000,1465.000,1462.000
447.791,1432.000,1445.000,1439.000
451.291,1439.000,1422.000,1438.000
454.785,1409.000,1436.000,1422.000
458.282,1415.000,1421.000,1419.000
461.777,1397.000,1412.000,1416.000
465.271,1387.000,1425.000,1388.000
468.763,1352.000,1339.000,1364.000
472.252,1374.000,1357.000,1352.000
475.742,1394.000,1378.000,1372.000
479.230,1421.000,1428.000,1393.000
482.717,1431.000,1425.000,1374.000
486.203,1454.000,1377.000,1418.000
489.685,1387.000,1381.000,1371.000
493.169,1322.000,1304.000,1307.000
496.651,1251.000,1225.000,1235.000
500.130,1207.000,1213.000,1192.000
503.610,1136.000,1147.000,1142.000
507.085,1081.000,1112.000,1072.000
510.562,1048.000,1036.000,1062.000
514.037,1038.000,1006.000,1018.000
517.511,995.000,987.000,977.000
520.984,986.000,985.000,955.000
524.453,964.000,951.000,965.000
527.922,950.000,926.000,929.000
531.391,966.000,946.000,927.000
534.858,935.000,918.000,923.000
538.324,939.000,917.000,918.000
541.786,919.000,896.000,906.000
545.249,907.000,916.000,892.000
548.712,911.000,888.000,882.000
552.173,909.000,902.000,893.000
555.631,879.000,875.000,871.000
559.088,893.000,876.000,879.000
562.544,882.000,881.000,884.000
565.999,880.000,867.000,876.000
569.453,864.000,860.000,875.000
572.906,884.000,875.000,863.000
576.355,881.000,869.000,868.000
579.806,881.000,875.000,847.000
583.255,888.000,871.000,873.000
586.702,888.000,891.000,886.000
590.148,895.000,895.000,880.000
593.592,925.000,896.000,888.000
597.036,916.000,885.000,872.000
600.478,904.000,887.000,905.000
603.919,895.000,878.000,878.000
607.357,890.000,874.000,888.000
610.795,886.000,873.000,863.000
614.232,867.000,882.000,866.000
617.668,872.000,859.000,849.000
621.102,844.000,839.000,828.000
624.534,836.000,857.000,835.000
627.966,841.000,831.000,831.000
631.397,839.000,836.000,844.000
634.825,836.000,845.000,832.000
638.254,835.000,814.000,832.000
641.678,830.000,834.000,806.000
645.103,834.000,820.000,821.000
648.528,815.000,833.000,824.000
651.951,824.000,820.000,819.000
655.372,831.000,819.000,821.000
658.790,839.000,810.000,827.000
662.209,818.000,827.000,815.000
665.627,824.000,803.000,816.000
669.044,819.000,825.000,831.000
672.459,824.000,825.000,823.000
675.871,816.000,830.000,824.000
679.284,830.000,825.000,824.000
682.695,819.000,815.000,815.000
686.105,809.000,818.000,824.000
689.514,815.000,812.000,813.000
692.919,822.000,823.000,820.000
696.325,824.000,820.000,805.000
699.730,833.000,817.000,787.000
703.134,827.000,798.000,803.000
706.536,826.000,806.000,822.000
709.935,818.000,823.000,825.000
713.334,831.000,801.000,825.000
716.734,832.000,828.000,811.000
720.131,844.000,823.000,818.000
723.527,827.000,823.000,828.000
726.919,834.000,829.000,814.000
730.312,831.000,834.000,817.000
733.705,840.000,824.000,820.000
737.096,820.000,839.000,832.000
740.482,834.000,854.000,829.000
743.871,829.000,852.000,826.000
747.258,851.000,839.000,834.000
750.644,835.000,835.000,823.000
754.029,854.000,836.000,839.000
757.409,871.000,848.000,837.000
760.792,838.000,836.000,856.000
764.172,852.000,852.000,839.000
767.551,899.000,863.000,844.000
770.930,883.000,907.000,886.000
774.305,926.000,894.000,902.000
777.681,940.000,924.000,900.000
781.054,935.000,928.000,912.000
784.428,944.000,942.000,929.000
787.799,924.000,933.000,918.000
791.169,956.000,929.000,922.000
794.538,947.000,928.000,940.000
797.905,930.000,916.000,939.000
801.272,949.000,924.000,918.000
804.638,945.000,935.000,913.000
808.000,948.000,942.000,929.000
811.363,922.000,935.000,923.000
814.725,949.000,911.000,923.000
818.085,958.000,916.000,919.000
821.445,931.000,927.000,938.000
824.801,928.000,927.000,909.000
828.157,919.000,934.000,895.000
831.513,911.000,901.000,903.000
834.867,899.000,893.000,897.000
838.220,928.000,870.000,872.000
841.569,903.000,885.000,895.000
844.920,865.000,879.000,867.000
848.269,883.000,861.000,881.000
851.617,875.000,875.000,848.000
854.964,877.000,851.000,852.000
858.308,876.000,849.000,846.000
861.652,856.000,847.000,827.000
864.994,882.000,864.000,840.000
868.337,866.000,842.000,835.000
871.677,844.000,869.000,827.000
875.014,853.000,860.000,852.000
878.352,855.000,858.000,840.000
881.690,853.000,859.000,843.000
885.025,879.000,866.000,839.000
888.359,869.000,872.000,870.000
891.690,894.000,873.000,859.000
895.021,868.000,871.000,856.000
898.352,903.000,883.000,887.000
900.849,913.000,910.000,907.000

File: 2025_08_23_SiO2_Glass_50X_532nm_74mW_Andor750_1200gv_480wn_3accum_30s_UnPol_Pos7.csv
7.043,1962.000,2010.000,1934.000
10.712,1864.000,1858.000,1881.000
14.379,1911.000,1927.000,1865.000
18.044,2119.000,2121.000,2111.000
21.709,2569.000,2591.000,2528.000
25.372,2570.000,2550.000,2528.000
29.034,2943.000,2899.000,2872.000
32.695,3281.000,3289.000,3260.000
36.351,3053.000,3031.000,3065.000
40.009,3514.000,3443.000,3473.000
43.666,3428.000,3372.000,3398.000
47.320,3410.000,3415.000,3364.000
50.973,3294.000,3184.000,3293.000
54.623,3614.000,3609.000,3574.000
58.274,3256.000,3177.000,3230.000
61.923,3310.000,3303.000,3282.000
65.570,3286.000,3267.000,3257.000
69.217,3207.000,3167.000,3170.000
72.859,3206.000,3251.000,3237.000
76.503,3182.000,3234.000,3179.000
80.146,3173.000,3187.000,3120.000
83.786,3132.000,3167.000,3118.000
87.425,3346.000,3367.000,3397.000
91.061,3116.000,3165.000,3125.000
94.698,3249.000,3181.000,3227.000
98.332,3016.000,3005.000,2983.000
101.965,3230.000,3149.000,3191.000
105.595,2970.000,2909.000,2953.000
109.226,2979.000,2922.000,2913.000
112.856,2946.000,3001.000,2972.000
116.484,2864.000,2829.000,2883.000
120.110,2846.000,2839.000,2890.000
123.733,2867.000,2733.000,2856.000
127.357,2819.000,2770.000,2762.000
130.980,2754.000,2752.000,2773.000
134.600,2907.000,2848.000,2879.000
138.219,2707.000,2675.000,2663.000
141.835,2707.000,2680.000,2685.000
145.452,2717.000,2709.000,2697.000
149.067,2683.000,2637.000,2662.000
152.681,2624.000,2623.000,2675.000
156.294,2623.000,2649.000,2621.000
159.903,2616.000,2596.000,2541.000
163.512,2675.000,2624.000,2690.000
167.121,2702.000,2672.000,2644.000
170.727,2634.000,2675.000,2628.000
174.333,2642.000,2600.000,2616.000
177.935,2716.000,2658.000,2686.000
181.538,2662.000,2683.000,2631.000
185.138,2651.000,2578.000,2661.000
188.739,2689.000,2649.000,2703.000
192.337,2623.000,2667.000,2654.000
195.932,2665.000,2684.000,2655.000
199.527,2737.000,2698.000,2629.000
203.122,2740.000,2716.000,2751.000
206.715,2711.000,2677.000,2694.000
210.306,2777.000,2721.000,2726.000
213.895,2806.000,2787.000,2791.000
217.483,2755.000,2731.000,2751.000
221.071,2844.000,2796.000,2791.000
224.657,2879.000,2870.000,2825.000
228.241,2806.000,2800.000,2840.000
231.823,2855.000,2823.000,2881.000
235.404,2944.000,2908.000,2895.000
238.985,2933.000,2885.000,2850.000
242.564,2903.000,2925.000,2954.000
246.142,3056.000,3091.000,3016.000
249.716,3001.000,2981.000,3025.000
253.291,3055.000,3011.000,3009.000
256.864,3121.000,3008.000,3019.000
260.437,3159.000,3175.000,3137.000
264.005,3156.000,3170.000,3123.000
267.575,3254.000,3230.000,3202.000
271.144,3240.000,3207.000,3304.000
274.709,3243.000,3285.000,3300.000
278.275,3302.000,3311.000,3347.000
281.838,3370.000,3396.000,3355.000
285.400,3455.000,3404.000,3383.000
288.961,3411.000,3412.000,3386.000
292.521,3521.000,3506.000,7037.000
296.079,3485.000,3501.000,3489.000
299.634,3522.000,3418.000,3514.000
303.190,3610.000,3557.000,3557.000
306.745,3570.000,3608.000,3609.000
310.298,3612.000,3589.000,3563.000
313.849,3689.000,3619.000,3670.000
317.397,3669.000,3636.000,3647.000
320.946,3703.000,3750.000,3708.000
324.493,3896.000,3715.000,3812.000
328.039,3839.000,3760.000,3804.000
331.584,3870.000,3833.000,3817.000
335.125,3897.000,3886.000,3932.000
338.668,3987.000,3935.000,3936.000
342.209,4049.000,3904.000,3969.000
345.748,3964.000,3923.000,3983.000
349.286,4149.000,4100.000,4069.000
352.821,4118.000,4111.000,4131.000
356.356,4201.000,4143.000,4090.000
359.891,4187.000,4202.000,4161.000
363.423,4262.000,4196.000,4225.000
366.955,4267.000,4213.000,4224.000
370.482,4266.000,4276.000,4267.000
374.011,4396.000,4306.000,4335.000
377.538,4328.000,4293.000,4339.000
381.064,4387.000,4356.000,4378.000
384.588,4419.000,4473.000,4394.000
388.110,4393.000,4399.000,4460.000
391.631,4412.000,4352.000,4427.000
395.152,4455.000,4449.000,4429.000
398.671,4549.000,4445.000,4505.000
402.189,4538.000,4448.000,4488.000
405.702,4473.000,4532.000,4496.000
409.218,4568.000,4482.000,4519.000
412.731,4522.000,4575.000,4418.000
416.244,4602.000,4548.000,4535.000
419.752,4575.000,4587.000,4482.000
423.262,4572.000,4566.000,4533.000
426.771,4544.000,4459.000,4471.000
430.278,4656.000,4630.000,4615.000
433.784,4598.000,4629.000,4566.000
437.286,4557.000,4580.000,4520.000
440.789,4496.000,4523.000,4523.000
444.290,4518.000,4487.000,4487.000
447.791,4455.000,4504.000,4451.000
451.291,4448.000,4404.000,4384.000
454.785,4453.000,4381.000,4369.000
458.282,4310.000,4337.000,4252.000
461.777,4305.000,4157.000,4254.000
465.271,4163.000,4145.000,4200.000
468.763,4071.000,4073.000,4049.000
472.252,4126.000,4065.000,4124.000
475.742,4167.000,4182.000,4118.000
479.230,4256.000,4288.000,4340.000
482.717,4301.000,4304.000,4300.000
486.203,4214.000,4180.000,4272.000
489.685,4068.000,4104.000,4117.000
493.169,3754.000,3740.000,3811.000
496.651,3512.000,3467.000,3427.000
500.130,3193.000,3177.000,3166.000
503.610,2923.000,2891.000,2888.000
507.085,2667.000,2692.000,2597.000
510.562,2470.000,2420.000,2409.000
514.037,2286.000,2255.000,2275.000
517.511,2149.000,2151.000,2101.000
520.984,2042.000,1996.000,2040.000
524.453,1955.000,1930.000,1953.000
527.922,1959.000,1861.000,1874.000
531.391,1832.000,1818.000,1789.000
534.858,1800.000,1757.000,1761.000
538.324,1741.000,1760.000,1742.000
541.786,1676.000,1694.000,1676.000
545.249,1685.000,1669.000,1604.000
548.712,1665.000,1621.000,1603.000
552.173,1620.000,1644.000,1573.000
555.631,1582.000,1570.000,1557.000
559.088,1575.000,1526.000,1515.000
562.544,1582.000,1569.000,1513.000
565.999,1513.000,1495.000,1510.000
569.453,1494.000,1502.000,1547.000
572.906,1499.000,1521.000,1501.000
576.355,1547.000,1509.000,1507.000
579.806,1537.000,1490.000,1450.000
583.255,1509.000,1559.000,1506.000
586.702,1551.000,1536.000,1525.000
590.148,1556.000,1601.000,1582.000
593.592,1649.000,1634.000,1642.000
597.036,1654.000,1616.000,1651.000
600.478,1663.000,1600.000,1609.000
603.919,1597.000,1587.000,1595.000
607.357,1607.000,1552.000,1592.000
610.795,1521.000,1486.000,1524.000
614.232,1463.000,1415.000,1441.000
617.668,1445.000,1406.000,1415.000
621.102,1388.000,1365.000,1346.000
624.534,1354.000,1311.000,1311.000
627.966,1366.000,1293.000,1303.000
631.397,1280.000,1266.000,1261.000
634.825,1268.000,1259.000,1227.000
638.254,1272.000,1249.000,1235.000
641.678,1229.000,1232.000,1249.000
645.103,1241.000,1200.000,1227.000
648.528,1218.000,1198.000,1195.000
651.951,1228.000,1215.000,1207.000
655.372,1221.000,1186.000,1182.000
658.790,1204.000,1191.000,1191.000
662.209,1191.000,1205.000,1196.000
665.627,1203.000,1216.000,1195.000
669.044,1187.000,1223.000,1161.000
672.459,1189.000,1187.000,1181.000
675.871,1185.000,1148.000,1185.000
679.284,1175.000,1179.000,1150.000
682.695,1176.000,1153.000,1156.000
686.105,1223.000,1192.000,1163.000
689.514,1199.000,1194.000,1155.000
692.919,1175.000,1161.000,1167.000
696.325,1206.000,1165.000,1184.000
699.730,1162.000,1169.000,1131.000
703.134,1174.000,1161.000,1159.000
706.536,1204.000,1161.000,1148.000
709.935,1224.000,1178.000,1191.000
713.334,1219.000,1176.000,1149.000
716.734,1188.000,1166.000,1149.000
720.131,1211.000,1177.000,1190.000
723.527,1200.000,1190.000,1190.000
726.919,1218.000,1183.000,1169.000
730.312,1207.000,1178.000,1193.000
733.705,1220.000,1206.000,1176.000
737.096,1227.000,1205.000,1184.000
740.482,1205.000,1196.000,1195.000
743.871,1244.000,1212.000,1190.000
747.258,1238.000,1256.000,1203.000
750.644,1243.000,1217.000,1215.000
754.029,1233.000,1220.000,1237.000
757.409,1261.000,1250.000,1254.000
760.792,1243.000,1239.000,1274.000
764.172,1325.000,1313.000,1263.000
767.551,1395.000,1399.000,1371.000
770.930,1473.000,1463.000,1474.000
774.305,1547.000,1518.000,1511.000
777.681,1637.000,1608.000,1614.000
781.054,1645.000,1662.000,1658.000
784.428,1700.000,1728.000,1689.000
787.799,1704.000,1697.000,1670.000
791.169,1728.000,1728.000,1717.000
794.538,1717.000,1699.000,1701.000
797.905,1716.000,1719.000,1691.000
801.272,1707.000,1704.000,1693.000
804.638,1710.000,1670.000,1667.000
808.000,1689.000,1659.000,1640.000
811.363,1598.000,1652.000,1619.000
814.725,1664.000,1685.000,1659.000
818.085,1596.000,1615.000,1600.000
821.445,1597.000,1615.000,1569.000
824.801,1556.000,1568.000,1598.000
828.157,1582.000,1555.000,1536.000
831.513,1501.000,1523.000,1482.000
834.867,1476.000,1479.000,1510.000
838.220,1479.000,1463.000,1453.000
841.569,1427.000,1443.000,1402.000
844.920,1400.000,1385.000,1340.000
848.269,1367.000,1311.000,1311.000
851.617,1311.000,1278.000,1263.000
854.964,1255.000,1242.000,1229.000
858.308,1229.000,1201.000,1215.000
861.652,1213.000,1185.000,1190.000
864.994,1191.000,1166.000,1166.000
868.337,1175.000,1149.000,1165.000
871.677,1170.000,1184.000,1151.000
875.014,1134.000,1151.000,1126.000
878.352,1171.000,1128.000,1133.000
881.690,1175.000,1157.000,1108.000
885.025,1172.000,1154.000,1154.000
888.359,1152.000,1137.000,1126.000
891.690,1195.000,1140.000,1110.000
895.021,1172.000,1151.000,1142.000
898.352,1185.000,1160.000,1190.000
900.849,1204.000,1151.000,1160.000