Folder: Data/Raman/Silica (part 32)

File: 2025_08_22_BB1392_SiO2_8wtPctH2O_Glass_50X_532nm_750uW_Kymera328_300gv_3000wn_3accum_60s_Unpol.csv
-1027.971,3074.000,3072.000,3075.000
-988.527,3076.000,3068.000,3076.000
-949.242,3076.000,3075.000,3083.000
-910.112,3072.000,3068.000,3089.000
-871.134,3070.000,3088.000,3083.000
-832.312,3090.000,3083.000,3086.000
-793.643,3089.000,3082.000,3086.000
-755.126,3075.000,3082.000,3095.000
-716.759,3083.000,3084.000,3098.000
-678.542,3096.000,3094.000,3096.000
-640.479,3096.000,3111.000,3103.000
-602.559,3121.000,3119.000,3113.000
-564.789,3135.000,3136.000,3139.000
-527.164,3164.000,3178.000,3169.000
-489.688,3221.000,3224.000,3229.000
-452.355,3267.000,3286.000,3283.000
-415.165,3297.000,3303.000,3288.000
-378.122,3308.000,3303.000,3309.000
-341.221,3326.000,3323.000,3335.000
-304.460,4524.000,3377.000,3371.000
-267.840,3391.000,3382.000,3375.000
-231.358,3431.000,3450.000,3421.000
-195.022,3507.000,3495.000,3500.000
-158.818,3631.000,3621.000,3650.000
-122.755,3825.000,3836.000,3813.000
-86.827,4107.000,4095.000,4099.000
-51.039,4465.000,4548.000,4484.000
-15.382,7641.000,7792.000,7746.000
20.139,10753.000,10736.000,10688.000
55.524,14332.000,14571.000,14226.000
90.779,43421.000,43680.000,43446.000
125.899,13609.000,13562.000,13507.000
160.890,4816.000,4819.000,4845.000
195.746,4219.000,4251.000,4283.000
230.476,4144.000,4179.000,4159.000
265.077,4140.000,4153.000,4129.000
299.547,4194.000,4143.000,4165.000
333.888,4231.000,4225.000,4269.000
368.102,4283.000,4337.000,4296.000
402.192,4403.000,4428.000,4431.000
436.157,4517.000,4555.000,4526.000
469.991,4705.000,4654.000,4657.000
503.705,4430.000,4457.000,4414.000
537.295,4081.000,4058.000,4052.000
570.762,3835.000,3779.000,3820.000
604.103,3684.000,3707.000,3646.000
637.326,3616.000,3644.000,3613.000
670.426,3546.000,3589.000,3550.000
703.408,3558.000,3552.000,3549.000
736.267,3556.000,3538.000,3536.000
769.008,3567.000,3591.000,3562.000
801.632,3675.000,3629.000,3673.000
834.134,3602.000,3577.000,3588.000
866.524,3542.000,3569.000,3540.000
898.796,3532.000,3587.000,3534.000
930.951,3655.000,3651.000,3614.000
962.991,3730.000,3742.000,3703.000
994.915,3686.000,3706.000,3673.000
1026.727,3626.000,3590.000,3636.000
1058.424,3580.000,3602.000,3596.000
1090.008,3595.000,3618.000,3594.000
1121.480,3615.000,3604.000,3572.000
1152.842,3578.000,3601.000,3616.000
1184.092,3559.000,3564.000,3596.000
1215.230,3521.000,3561.000,3531.000
1246.260,3547.000,3540.000,3548.000
1277.179,3533.000,3530.000,3530.000
1307.992,3496.000,3565.000,3509.000
1338.694,3524.000,3512.000,3541.000
1369.289,3575.000,3543.000,3557.000
1399.779,3563.000,3557.000,3555.000
1430.161,3579.000,3568.000,3587.000
1460.436,3609.000,3577.000,3600.000
1490.606,3594.000,3575.000,3587.000
1520.672,3617.000,3605.000,3577.000
1550.635,3627.000,3597.000,3596.000
1580.490,3624.000,3599.000,3628.000
1610.246,3631.000,3648.000,3636.000
1639.897,3633.000,3667.000,3610.000
1669.446,3597.000,3657.000,3622.000
1698.894,3644.000,3643.000,3638.000
1728.242,3632.000,3612.000,3607.000
1757.489,3625.000,3619.000,3627.000
1786.634,3647.000,3594.000,3661.000
1815.682,3669.000,3637.000,3645.000
1844.629,3694.000,3631.000,3634.000
1873.479,3653.000,3631.000,3651.000
1902.231,3684.000,3659.000,3658.000
1930.883,3693.000,3683.000,3680.000
1959.441,3671.000,3666.000,3710.000
1987.901,3691.000,3684.000,3691.000
2016.264,3707.000,3685.000,3696.000
2044.532,3684.000,3730.000,3641.000
2072.707,3703.000,3683.000,3695.000
2100.785,3721.000,3720.000,3706.000
2128.769,3703.000,3687.000,3728.000
2156.662,3730.000,3711.000,3727.000
2184.459,3718.000,3723.000,3726.000
2212.165,3759.000,3702.000,3737.000
2239.776,3759.000,3746.000,3773.000
2267.299,3709.000,3767.000,3749.000
2294.729,3758.000,3781.000,3742.000
2322.066,3768.000,3832.000,3778.000
2349.315,3811.000,3817.000,3814.000
2376.473,3813.000,3823.000,3816.000
2403.543,3823.000,3823.000,3857.000
2430.521,3829.000,3841.000,3829.000
2457.413,3826.000,3835.000,3858.000
2484.215,3864.000,3832.000,3838.000
2510.932,3879.000,3862.000,3858.000
2537.559,3919.000,3844.000,3855.000
2564.099,3864.000,3887.000,3887.000
2590.555,3915.000,3883.000,3878.000
2616.923,3919.000,3869.000,3893.000
2643.205,3941.000,3920.000,3902.000
2669.403,3918.000,3932.000,3884.000
2695.516,4622.000,4108.000,3939.000
2721.544,3957.000,3885.000,3937.000
2747.486,3899.000,3926.000,3903.000
2773.348,3953.000,3959.000,3932.000
2799.124,3938.000,3948.000,3986.000
2824.821,4009.000,3987.000,3944.000
2850.431,4049.000,3979.000,4012.000
2875.962,4035.000,4020.000,4003.000
2901.412,4079.000,4049.000,3986.000
2926.776,4098.000,4100.000,4068.000
2952.064,4075.000,4084.000,4080.000
2977.269,4070.000,4135.000,4096.000
3002.396,4146.000,4172.000,4146.000
3027.442,4128.000,4168.000,4127.000
3052.408,4198.000,4212.000,4151.000
3077.298,4195.000,4222.000,4224.000
3102.106,4209.000,4234.000,4205.000
3126.837,4256.000,4248.000,4218.000
3151.492,4271.000,4270.000,4235.000
3176.067,4317.000,4336.000,4299.000
3200.565,4330.000,4321.000,5677.000
3224.987,4367.000,4381.000,4341.000
3249.334,4386.000,4348.000,4381.000
3273.603,4370.000,4435.000,4408.000
3297.798,4406.000,4429.000,4435.000
3321.915,4481.000,4493.000,4468.000
3345.960,4513.000,4484.000,4500.000
3369.930,4527.000,4545.000,4547.000
3393.825,4572.000,4511.000,4552.000
3417.645,4636.000,4620.000,4550.000
3441.392,4597.000,4603.000,4617.000
3465.068,4625.000,4633.000,4607.000
3488.670,4641.000,4616.000,4625.000
3512.197,4665.000,4629.000,4628.000
3535.655,4693.000,4667.000,4673.000
3559.039,4781.000,4724.000,4769.000
3582.352,4774.000,4807.000,4834.000
3605.593,4808.000,4791.000,4784.000
3628.765,4738.000,4776.000,4715.000
3651.866,4701.000,4704.000,4684.000
3674.895,4551.000,4534.000,4598.000
3697.857,4466.000,4638.000,4424.000
3720.747,4421.000,4415.000,4436.000
3743.569,4418.000,4426.000,4398.000
3766.319,4393.000,4382.000,5211.000
3789.004,4447.000,4482.000,4459.000
3811.621,4403.000,4468.000,4427.000
3834.167,4416.000,4444.000,4432.000
3856.647,4436.000,4451.000,4483.000
3879.058,4429.000,4423.000,4474.000
3901.404,4435.000,4459.000,4448.000
3923.684,4471.000,4469.000,4468.000
3945.893,4471.000,4495.000,4432.000
3968.038,4472.000,4522.000,4527.000
3990.118,4493.000,4481.000,4496.000
4012.134,4476.000,4475.000,4470.000
4034.080,4456.000,4477.000,4503.000
4055.964,4548.000,4526.000,4500.000
4077.783,4543.000,4533.000,4546.000
4099.536,4482.000,4505.000,4511.000
4121.226,4533.000,4462.000,4539.000
4142.852,4487.000,4499.000,4469.000
4164.415,4502.000,4503.000,4503.000
4185.913,4499.000,4553.000,4510.000
4207.349,4472.000,4496.000,4490.000
4228.723,4473.000,4528.000,4467.000
4250.033,4516.000,4501.000,4484.000
4271.280,4519.000,4529.000,4526.000
4292.468,4539.000,4563.000,4487.000
4313.592,4527.000,4516.000,4514.000
4334.655,4557.000,4526.000,4518.000
4355.657,4471.000,4497.000,4523.000
4376.597,4516.000,4498.000,4473.000
4397.479,4525.000,4449.000,4505.000
4418.300,4467.000,4465.000,4537.000
4439.058,4442.000,4472.000,4452.000
4459.759,4499.000,4460.000,4490.000
4480.399,4468.000,4470.000,4457.000
4500.980,4443.000,4484.000,4499.000
4521.502,4486.000,4441.000,4437.000
4541.965,4463.000,4436.000,4437.000
4562.370,4422.000,4490.000,4414.000
4582.715,4445.000,4457.000,4418.000
4603.004,4413.000,4427.000,4456.000
4623.234,4475.000,4407.000,4395.000
4643.407,4421.000,4429.000,4389.000
4663.522,4405.000,4433.000,4402.000
4683.581,4379.000,4391.000,4373.000
4703.582,4321.000,4399.000,4423.000
4723.528,4351.000,4343.000,4400.000
4743.415,4336.000,4355.000,4325.000
4763.248,4355.000,4323.000,4297.000
4783.024,4301.000,4333.000,4255.000
4802.746,4377.000,4312.000,4291.000
4822.410,4318.000,4313.000,4279.000
4842.021,4256.000,4298.000,4299.000
4861.577,4273.000,4255.000,4278.000
4881.077,4296.000,4237.000,4291.000
4900.523,4240.000,4259.000,4260.000
4919.915,4219.000,4256.000,4254.000
4939.251,4290.000,4269.000,4241.000
4958.537,4235.000,4239.000,4232.000
4977.766,4205.000,4215.000,4210.000
4996.943,4215.000,4194.000,4183.000
5016.067,4193.000,4163.000,4180.000
5035.138,4179.000,4162.000,4184.000
5054.156,4163.000,4150.000,4171.000
5073.122,4171.000,4092.000,4118.000
5092.035,4135.000,4181.000,4171.000
5110.895,4136.000,4171.000,4151.000
5129.704,4074.000,4096.000,4115.000
5148.464,4078.000,4113.000,4088.000
5167.170,4061.000,4089.000,4096.000
5185.825,4093.000,4084.000,4112.000
5204.428,4081.000,4056.000,4044.000
5222.982,4047.000,4062.000,4039.000
5241.485,4031.000,4012.000,4029.000
5259.937,3983.000,4039.000,4053.000
5278.340,4012.000,3954.000,3998.000
5296.692,4040.000,4047.000,4043.000
5314.995,4028.000,3998.000,4002.000
5333.247,4001.000,4003.000,4023.000
5351.451,4024.000,3968.000,3971.000
5369.606,3976.000,4015.000,4029.000
5387.711,3956.000,3936.000,3977.000
5405.768,3978.000,3917.000,3948.000
5423.777,3970.000,3958.000,3963.000
5441.736,3908.000,3941.000,3923.000
5459.648,3876.000,3919.000,3925.000
5477.510,3916.000,3889.000,3920.000
5495.328,3891.000,4750.000,3909.000
5513.095,3925.000,3878.000,3883.000
5530.816,3888.000,3877.000,3886.000
5548.489,3885.000,3870.000,3870.000
5566.116,3886.000,3895.000,3854.000
5583.697,3878.000,3877.000,3878.000
5601.228,3881.000,3877.000,3849.000
5618.716,3842.000,3856.000,3857.000
5636.157,3870.000,3900.000,3897.000
5653.551,3851.000,3833.000,3855.000
5666.567,3881.000,3893.000,3855.000

File: 2025_08_22_BB1392_SiO2_8wtPctH2O_Glass_50X_532nm_750uW_Kymera328_300gv_3000wn_3accum_60s_Unpol_2.csv
-1027.971,3069.000,3075.000,3069.000
-988.527,3075.000,3067.000,3067.000
-949.242,3078.000,3079.000,3073.000
-910.112,3083.000,3073.000,3074.000
-871.134,3072.000,3077.000,3078.000
-832.312,3072.000,3077.000,3083.000
-793.643,3081.000,3076.000,3088.000
-755.126,3080.000,3083.000,3085.000
-716.759,3090.000,3093.000,3090.000
-678.542,3088.000,3084.000,3084.000
-640.479,3099.000,3098.000,3107.000
-602.559,4251.000,3116.000,3117.000
-564.789,3138.000,3119.000,3136.000
-527.164,3171.000,3161.000,3150.000
-489.688,3224.000,3208.000,3221.000
-452.355,3284.000,3269.000,3266.000
-415.165,3277.000,3308.000,3314.000
-378.122,3313.000,3322.000,3284.000
-341.221,3333.000,3301.000,3331.000
-304.460,3323.000,3336.000,3341.000
-267.840,3354.000,3368.000,3378.000
-231.358,3418.000,3416.000,3406.000
-195.022,3504.000,3487.000,3498.000
-158.818,3615.000,3608.000,3600.000
-122.755,3803.000,3794.000,3778.000
-86.827,4076.000,4070.000,4080.000
-51.039,4457.000,4480.000,4467.000
-15.382,7633.000,7722.000,7748.000
20.139,9899.000,9905.000,9886.000
55.524,11212.000,11218.000,11241.000
90.779,29281.000,28661.000,27982.000
125.899,8769.000,8721.000,8520.000
160.890,4583.000,4554.000,4532.000
195.746,4190.000,4161.000,4152.000
230.476,4070.000,4105.000,4125.000
265.077,4088.000,4084.000,4103.000
299.547,4114.000,4121.000,4110.000
333.888,4169.000,4196.000,4195.000
368.102,4266.000,4321.000,4301.000
402.192,4327.000,4378.000,4354.000
436.157,4517.000,4528.000,4560.000
469.991,4636.000,4624.000,4593.000
503.705,4405.000,4401.000,4375.000
537.295,3996.000,4035.000,4033.000
570.762,3803.000,3777.000,3781.000
604.103,3648.000,3653.000,3643.000
637.326,3558.000,3571.000,3551.000
670.426,3541.000,3556.000,3555.000
703.408,3520.000,3539.000,3517.000
736.267,3548.000,3538.000,3518.000
769.008,3571.000,3561.000,3576.000
801.632,3572.000,3598.000,3594.000
834.134,3558.000,3567.000,3547.000
866.524,3553.000,3522.000,3514.000
898.796,3507.000,3524.000,3527.000
930.951,3586.000,3592.000,3581.000
962.991,3694.000,3654.000,3689.000
994.915,3655.000,3648.000,3663.000
1026.727,3574.000,3592.000,3625.000
1058.424,3560.000,3575.000,3573.000
1090.008,3569.000,3540.000,3573.000
1121.480,3550.000,3550.000,3539.000
1152.842,3554.000,3547.000,3519.000
1184.092,3518.000,3546.000,3536.000
1215.230,3523.000,3524.000,3515.000
1246.260,3531.000,3516.000,3467.000
1277.179,3518.000,3503.000,3502.000
1307.992,3482.000,3492.000,3483.000
1338.694,3498.000,3504.000,3512.000
1369.289,3530.000,3535.000,3522.000
1399.779,3529.000,3532.000,3502.000
1430.161,3540.000,3547.000,3505.000
1460.436,3503.000,3525.000,3534.000
1490.606,3563.000,3578.000,3555.000
1520.672,3569.000,3548.000,3537.000
1550.635,3533.000,3566.000,3584.000
1580.490,3571.000,3577.000,3534.000
1610.246,3605.000,3557.000,3612.000
1639.897,3601.000,3585.000,3590.000
1669.446,3572.000,3595.000,3601.000
1698.894,3575.000,3615.000,3552.000
1728.242,3589.000,3563.000,3610.000
1757.489,3567.000,3585.000,3587.000
1786.634,3579.000,3572.000,3569.000
1815.682,3617.000,3616.000,3606.000
1844.629,3581.000,3587.000,3593.000
1873.479,3630.000,3592.000,3596.000
1902.231,3593.000,3618.000,3624.000
1930.883,3642.000,3637.000,3597.000
1959.441,3659.000,3606.000,3646.000
1987.901,3616.000,3624.000,3635.000
2016.264,3649.000,3648.000,3639.000
2044.532,3677.000,3648.000,3631.000
2072.707,3631.000,3653.000,3680.000
2100.785,3669.000,3712.000,3643.000
2128.769,3665.000,3676.000,3696.000
2156.662,3661.000,3693.000,3662.000
2184.459,3660.000,3670.000,3707.000
2212.165,3659.000,3705.000,3708.000
2239.776,3720.000,3707.000,3684.000
2267.299,3680.000,3719.000,3703.000
2294.729,3707.000,3747.000,3763.000
2322.066,3750.000,3706.000,3762.000
2349.315,3754.000,3744.000,3729.000
2376.473,3760.000,3759.000,3757.000
2403.543,3777.000,3777.000,3804.000
2430.521,3800.000,3799.000,3778.000
2457.413,3757.000,3788.000,3779.000
2484.215,3830.000,3805.000,3765.000
2510.932,3785.000,3801.000,3863.000
2537.559,3833.000,3817.000,3797.000
2564.099,3826.000,3829.000,3813.000
2590.555,3846.000,3807.000,3822.000
2616.923,3828.000,3860.000,3852.000
2643.205,3832.000,3843.000,3834.000
2669.403,3872.000,3846.000,3839.000
2695.516,3875.000,3846.000,3893.000
2721.544,3865.000,3895.000,3883.000
2747.486,3915.000,3881.000,3845.000
2773.348,3878.000,3898.000,3885.000
2799.124,3936.000,4055.000,3911.000
2824.821,3930.000,3937.000,3928.000
2850.431,3936.000,3931.000,3974.000
2875.962,3931.000,3952.000,3957.000
2901.412,6299.000,4001.000,3983.000
2926.776,3997.000,4048.000,3986.000
2952.064,4028.000,4065.000,4037.000
2977.269,4030.000,3994.000,4047.000
3002.396,4056.000,4087.000,4105.000
3027.442,4075.000,4104.000,4075.000
3052.408,4110.000,4155.000,4107.000
3077.298,4163.000,4140.000,4144.000
3102.106,4211.000,4135.000,4228.000
3126.837,4215.000,4184.000,4189.000
3151.492,4184.000,4239.000,4225.000
3176.067,4246.000,4199.000,4238.000
3200.565,4251.000,4293.000,4286.000
3224.987,4303.000,4276.000,4303.000
3249.334,4334.000,4358.000,4297.000
3273.603,4366.000,4355.000,4367.000
3297.798,4424.000,4346.000,4382.000
3321.915,4453.000,4366.000,4384.000
3345.960,4384.000,4416.000,4451.000
3369.930,4485.000,4437.000,4457.000
3393.825,4473.000,4535.000,4458.000
3417.645,4526.000,4508.000,4494.000
3441.392,4568.000,4540.000,4553.000
3465.068,4559.000,4500.000,4536.000
3488.670,4565.000,4592.000,4568.000
3512.197,4588.000,4564.000,4605.000
3535.655,4623.000,4628.000,4697.000
3559.039,4645.000,4640.000,4720.000
3582.352,4706.000,4762.000,4724.000
3605.593,4694.000,4693.000,4730.000
3628.765,4720.000,4648.000,4650.000
3651.866,4605.000,4624.000,4606.000
3674.895,4485.000,4552.000,4565.000
3697.857,4388.000,4411.000,4462.000
3720.747,4370.000,4374.000,4391.000
3743.569,4350.000,4411.000,4338.000
3766.319,4355.000,4366.000,4348.000
3789.004,4389.000,4375.000,4345.000
3811.621,4333.000,4404.000,4388.000
3834.167,4353.000,4327.000,4410.000
3856.647,4366.000,4352.000,4368.000
3879.058,4385.000,4425.000,4389.000
3901.404,4400.000,4379.000,4395.000
3923.684,4405.000,4385.000,4407.000
3945.893,4399.000,4452.000,4429.000
3968.038,4448.000,4459.000,4407.000
3990.118,4466.000,4417.000,4454.000
4012.134,4447.000,4453.000,4462.000
4034.080,4450.000,4465.000,4462.000
4055.964,4428.000,4420.000,4453.000
4077.783,4451.000,4428.000,4462.000
4099.536,4464.000,4427.000,4488.000
4121.226,4436.000,4431.000,4501.000
4142.852,4431.000,4464.000,4448.000
4164.415,4434.000,4446.000,4419.000
4185.913,4485.000,4434.000,4427.000
4207.349,4490.000,4408.000,4434.000
4228.723,4456.000,4450.000,4460.000
4250.033,4459.000,4471.000,4437.000
4271.280,4492.000,4478.000,4510.000
4292.468,4432.000,4474.000,4443.000
4313.592,4423.000,4477.000,4453.000
4334.655,4472.000,4477.000,4434.000
4355.657,4467.000,4497.000,4456.000
4376.597,4457.000,4443.000,4495.000
4397.479,4414.000,4440.000,4431.000
4418.300,4435.000,4434.000,5596.000
4439.058,4479.000,4390.000,4429.000
4459.759,4424.000,4486.000,4445.000
4480.399,4449.000,4416.000,4405.000
4500.980,4468.000,4404.000,4460.000
4521.502,4440.000,4373.000,4368.000
4541.965,4375.000,4413.000,4355.000
4562.370,4379.000,4384.000,4344.000
4582.715,4347.000,4406.000,4352.000
4603.004,4349.000,4436.000,4373.000
4623.234,4373.000,4379.000,4379.000
4643.407,4333.000,4368.000,4376.000
4663.522,4334.000,4319.000,4294.000
4683.581,4330.000,4333.000,4352.000
4703.582,4268.000,4331.000,4263.000
4723.528,4335.000,4308.000,4317.000
4743.415,4284.000,4316.000,4293.000
4763.248,4293.000,4258.000,4263.000
4783.024,4238.000,11104.000,4259.000
4802.746,4244.000,4287.000,4275.000
4822.410,4274.000,4254.000,4265.000
4842.021,4275.000,4233.000,4241.000
4861.577,4224.000,4257.000,4235.000
4881.077,4235.000,4206.000,4237.000
4900.523,4232.000,4192.000,4183.000
4919.915,4211.000,4197.000,4205.000
4939.251,4199.000,4197.000,4184.000
4958.537,4196.000,4164.000,4150.000
4977.766,4176.000,4156.000,4166.000
4996.943,4154.000,4172.000,4157.000
5016.067,4173.000,4154.000,4150.000
5035.138,4123.000,4149.000,4158.000
5054.156,4153.000,4124.000,4098.000
5073.122,4084.000,4119.000,4088.000
5092.035,4116.000,4099.000,8602.000
5110.895,4120.000,4143.000,6656.000
5129.704,4069.000,4044.000,8106.000
5148.464,4033.000,4091.000,4022.000
5167.170,4077.000,4078.000,4034.000
5185.825,4026.000,4032.000,4031.000
5204.428,4029.000,4029.000,4027.000
5222.982,4003.000,3985.000,3974.000
5241.485,3950.000,4000.000,4019.000
5259.937,3963.000,3957.000,3971.000
5278.340,3948.000,3929.000,3970.000
5296.692,3923.000,3986.000,3989.000
5314.995,4013.000,3983.000,3964.000
5333.247,3960.000,3979.000,3964.000
5351.451,3952.000,3949.000,3947.000
5369.606,3981.000,3963.000,3931.000
5387.711,3943.000,3917.000,3927.000
5405.768,3929.000,3947.000,3942.000
5423.777,3920.000,3904.000,3907.000
5441.736,3940.000,3891.000,3907.000
5459.648,3896.000,3911.000,3889.000
5477.510,3931.000,3902.000,3895.000
5495.328,3835.000,3896.000,3892.000
5513.095,3855.000,3885.000,3868.000
5530.816,3842.000,3864.000,3842.000
5548.489,6839.000,3856.000,3840.000
5566.116,3866.000,3838.000,3855.000
5583.697,3832.000,3875.000,3827.000
5601.228,3828.000,3831.000,3817.000
5618.716,3844.000,3813.000,3839.000
5636.157,3848.000,3811.000,3827.000
5653.551,5487.000,3833.000,3823.000
5666.567,3825.000,3806.000,3817.000