Folder: Data/Raman/Silica (part 25)

File: 2025_08_22_BB1392_SiO2_8wtPctH2O_Glass_50X_532nm_6mW_Andor750_600gv_400wn_3accum_60s_Unpol_Pos2.csv
-683.222,656.000,650.000,651.000
-674.869,657.000,652.000,649.000
-666.520,644.000,647.000,652.000
-658.182,652.000,663.000,665.000
-649.848,660.000,651.000,654.000
-641.523,649.000,655.000,654.000
-633.206,659.000,662.000,658.000
-624.893,656.000,662.000,656.000
-616.591,666.000,654.000,665.000
-608.291,653.000,661.000,663.000
-600.003,659.000,668.000,666.000
-591.721,667.000,666.000,666.000
-583.444,662.000,663.000,655.000
-575.176,664.000,665.000,658.000
-566.913,675.000,665.000,671.000
-558.659,688.000,681.000,672.000
-550.413,673.000,671.000,685.000
-542.171,678.000,684.000,679.000
-533.938,678.000,699.000,685.000
-525.710,697.000,692.000,699.000
-517.492,694.000,702.000,707.000
-509.280,717.000,711.000,707.000
-501.073,731.000,735.000,728.000
-492.876,753.000,749.000,766.000
-484.685,801.000,795.000,789.000
-476.499,818.000,843.000,836.000
-468.322,867.000,846.000,855.000
-460.151,858.000,846.000,867.000
-451.988,868.000,860.000,849.000
-443.832,873.000,852.000,859.000
-435.680,856.000,869.000,867.000
-427.538,862.000,867.000,854.000
-419.399,869.000,875.000,862.000
-411.271,861.000,845.000,867.000
-403.150,867.000,880.000,856.000
-395.033,862.000,846.000,873.000
-386.925,909.000,867.000,879.000
-378.822,860.000,876.000,854.000
-370.727,873.000,872.000,883.000
-362.640,887.000,896.000,892.000
-354.557,898.000,895.000,883.000
-346.484,874.000,889.000,885.000
-338.415,889.000,890.000,883.000
-330.355,874.000,892.000,883.000
-322.302,902.000,893.000,887.000
-314.253,892.000,897.000,910.000
-306.214,2706.000,925.000,916.000
-298.179,906.000,903.000,927.000
-290.152,936.000,911.000,913.000
-282.132,934.000,894.000,911.000
-274.118,933.000,925.000,929.000
-266.112,929.000,918.000,918.000
-258.110,932.000,924.000,919.000
-250.118,959.000,971.000,960.000
-242.132,968.000,1357.000,966.000
-234.150,980.000,978.000,967.000
-226.178,995.000,984.000,991.000
-218.209,1014.000,1007.000,998.000
-210.250,996.000,1006.000,1010.000
-202.298,1029.000,1038.000,1010.000
-194.350,1060.000,1801.000,1059.000
-186.411,1074.000,1085.000,1089.000
-178.478,1065.000,1076.000,1076.000
-170.550,1113.000,1162.000,1116.000
-162.630,1175.000,1177.000,1188.000
-154.715,1177.000,1193.000,1181.000
-146.810,1224.000,1259.000,1237.000
-138.910,1313.000,1265.000,1293.000
-131.015,1318.000,1309.000,1320.000
-123.128,1369.000,1407.000,1401.000
-115.247,1525.000,1491.000,1470.000
-107.374,1546.000,1577.000,1545.000
-99.506,1609.000,1603.000,1627.000
-91.645,1723.000,1724.000,1768.000
-83.792,1836.000,1827.000,1845.000
-75.942,1871.000,1910.000,1905.000
-68.101,2066.000,2021.000,2006.000
-60.268,2130.000,2161.000,2111.000
-52.437,2232.000,2219.000,2195.000
-44.617,2346.000,2288.000,2309.000
-36.799,2462.000,2430.000,2419.000
-28.991,2430.000,2386.000,2427.000
-21.190,2305.000,2346.000,2319.000
-13.393,2248.000,2231.000,2289.000
-5.605,2777.000,2820.000,2870.000
2.180,3653.000,3680.000,3661.000
9.955,2405.000,2367.000,2334.000
17.725,7480.000,6577.000,6613.000
25.490,2410.000,2417.000,2408.000
33.247,2447.000,2501.000,2504.000
40.999,2650.000,2683.000,2692.000
48.743,2815.000,2752.000,2731.000
56.480,2864.000,2882.000,2857.000
64.213,2833.000,2837.000,2800.000
71.937,2752.000,2736.000,2668.000
79.658,2689.000,2706.000,2760.000
87.369,2604.000,2590.000,2617.000
95.075,2464.000,2506.000,2470.000
102.776,2503.000,2470.000,2472.000
110.470,2389.000,2362.000,2415.000
118.155,2252.000,2260.000,2257.000
125.838,2208.000,2191.000,2201.000
133.512,2132.000,2172.000,2172.000
141.181,2051.000,2075.000,2079.000
148.842,2009.000,1967.000,2013.000
156.497,1948.000,1982.000,1961.000
164.147,1888.000,1847.000,1881.000
171.790,1833.000,1847.000,1859.000
179.428,1827.000,1798.000,1846.000
187.058,1773.000,1775.000,1766.000
194.682,1760.000,1711.000,1730.000
202.301,1735.000,1740.000,1719.000
209.913,1685.000,1703.000,1746.000
217.519,1717.000,1690.000,1709.000
225.118,1724.000,1709.000,1697.000
232.710,1722.000,1687.000,1684.000
240.298,1707.000,1694.000,1705.000
247.879,1654.000,1650.000,1735.000
255.454,1702.000,1728.000,1682.000
263.022,1649.000,1719.000,1680.000
270.584,1718.000,1718.000,1727.000
278.141,1727.000,1701.000,1711.000
285.690,1687.000,1689.000,1714.000
293.236,1731.000,1751.000,1743.000
300.772,1765.000,1780.000,1777.000
308.303,1745.000,1737.000,1724.000
315.830,1766.000,1803.000,1782.000
323.348,1787.000,1784.000,1825.000
330.862,1834.000,1766.000,1817.000
338.369,1855.000,1863.000,1828.000
345.868,1874.000,1901.000,1858.000
353.365,1904.000,1912.000,1909.000
360.853,1946.000,1936.000,1969.000
368.336,2021.000,2009.000,1986.000
375.813,2000.000,2016.000,2021.000
383.282,2080.000,2022.000,2005.000
390.748,2078.000,2086.000,2097.000
398.206,2087.000,2125.000,2092.000
405.659,2125.000,2093.000,2104.000
413.105,2138.000,2136.000,2192.000
420.544,2143.000,2224.000,2199.000
427.980,2253.000,2277.000,2266.000
435.408,2286.000,2302.000,2297.000
442.831,2325.000,2368.000,2380.000
450.246,2403.000,2416.000,2400.000
457.656,2484.000,2476.000,2447.000
465.061,2564.000,2589.000,2515.000
472.459,2641.000,2625.000,2651.000
479.851,2701.000,2675.000,2623.000
487.238,2681.000,2697.000,2713.000
494.618,2613.000,2603.000,2602.000
501.994,2318.000,2328.000,2268.000
509.362,1977.000,2021.000,1977.000
516.724,1705.000,1741.000,1707.000
524.082,1521.000,1530.000,1582.000
531.432,1399.000,1417.000,1427.000
538.778,1312.000,1340.000,1331.000
546.115,1265.000,1272.000,1267.000
553.448,1232.000,1203.000,1245.000
560.777,1171.000,1179.000,1207.000
568.097,1130.000,1157.000,1153.000
575.414,1073.000,1077.000,1090.000
582.722,1056.000,1082.000,1072.000
590.025,1028.000,1034.000,1018.000
597.324,1024.000,1011.000,1026.000
604.615,968.000,1003.000,995.000
611.903,972.000,981.000,970.000
619.182,945.000,945.000,971.000
626.456,930.000,936.000,918.000
633.726,915.000,910.000,914.000
640.988,898.000,896.000,913.000
648.247,895.000,886.000,902.000
655.497,880.000,904.000,891.000
662.741,874.000,863.000,895.000
669.983,896.000,854.000,868.000
677.215,870.000,868.000,873.000
684.444,865.000,881.000,872.000
691.667,852.000,865.000,865.000
698.883,878.000,854.000,869.000
706.095,852.000,871.000,859.000
713.298,849.000,859.000,875.000
720.497,841.000,848.000,867.000
727.692,848.000,839.000,861.000
734.879,847.000,833.000,868.000
742.063,852.000,857.000,843.000
749.238,853.000,838.000,864.000
756.408,857.000,843.000,847.000
763.575,863.000,872.000,849.000
770.734,911.000,903.000,913.000
777.889,966.000,949.000,975.000
785.036,989.000,983.000,1008.000
792.178,1044.000,1034.000,1042.000
799.315,1033.000,1036.000,1019.000
806.446,1016.000,1028.000,1018.000
813.573,986.000,1021.000,1001.000
820.691,999.000,974.000,993.000
827.804,951.000,948.000,941.000
834.914,923.000,928.000,909.000
842.016,863.000,867.000,870.000
849.115,842.000,830.000,841.000
856.206,822.000,835.000,815.000
863.291,832.000,817.000,830.000
870.373,803.000,826.000,813.000
877.447,820.000,821.000,823.000
884.517,846.000,846.000,831.000
891.580,846.000,847.000,845.000
898.637,859.000,862.000,855.000
905.692,849.000,873.000,865.000
912.738,871.000,889.000,889.000
919.781,907.000,908.000,904.000
926.816,916.000,919.000,907.000
933.845,944.000,947.000,941.000
940.872,972.000,1002.000,986.000
947.890,1012.000,1012.000,1050.000
954.906,1069.000,1049.000,1054.000
961.913,1113.000,1113.000,1108.000
968.915,1179.000,1118.000,1127.000
975.913,1152.000,1123.000,1131.000
982.905,1080.000,1084.000,1088.000
989.892,1035.000,1004.000,1042.000
996.872,964.000,945.000,958.000
1003.847,885.000,901.000,900.000
1010.817,865.000,871.000,864.000
1017.781,854.000,858.000,834.000
1024.742,836.000,837.000,832.000
1031.694,824.000,829.000,829.000
1038.642,834.000,828.000,840.000
1045.586,841.000,831.000,831.000
1052.522,837.000,838.000,843.000
1059.453,822.000,832.000,834.000
1066.381,830.000,827.000,820.000
1073.301,825.000,814.000,806.000
1080.218,811.000,814.000,815.000
1087.128,808.000,785.000,780.000
1094.031,765.000,794.000,778.000
1100.932,761.000,771.000,778.000
1107.825,739.000,752.000,744.000
1114.716,762.000,747.000,749.000
1121.598,764.000,755.000,745.000
1128.475,754.000,743.000,766.000
1135.349,740.000,762.000,755.000
1142.215,770.000,778.000,778.000
1149.079,759.000,793.000,777.000
1155.935,781.000,771.000,774.000
1162.785,776.000,792.000,779.000
1169.632,787.000,789.000,791.000
1176.473,780.000,768.000,795.000
1183.309,788.000,796.000,797.000
1190.138,788.000,779.000,794.000
1196.962,791.000,784.000,779.000
1203.783,774.000,787.000,782.000
1210.597,786.000,784.000,787.000
1217.407,782.000,773.000,778.000
1224.209,776.000,771.000,782.000
1231.008,774.000,766.000,780.000
1237.802,766.000,776.000,772.000
1242.893,778.000,782.000,776.000

File: 2025_08_22_BB1392_SiO2_8wtPctH2O_Glass_50X_532nm_6mW_Andor750_600gv_1030wn_3accum_1s_UnPol_Pos2.csv
23.130,673.000,659.000,667.000
30.879,674.000,667.000,662.000
38.619,668.000,672.000,670.000
46.355,678.000,679.000,667.000
54.083,663.000,680.000,676.000
61.807,670.000,671.000,668.000
69.523,673.000,674.000,678.000
77.233,677.000,672.000,684.000
84.936,666.000,676.000,663.000
92.632,669.000,670.000,665.000
100.323,664.000,663.000,665.000
108.007,674.000,653.000,670.000
115.685,665.000,666.000,670.000
123.359,668.000,674.000,665.000
131.024,665.000,653.000,665.000
138.683,661.000,661.000,663.000
146.335,658.000,666.000,650.000
153.982,658.000,651.000,662.000
161.621,653.000,653.000,662.000
169.256,661.000,661.000,667.000
176.883,656.000,659.000,660.000
184.504,655.000,664.000,654.000
192.122,660.000,660.000,665.000
199.731,659.000,653.000,659.000
207.333,653.000,659.000,656.000
214.929,656.000,655.000,662.000
222.519,660.000,657.000,657.000
230.104,649.000,658.000,647.000
237.681,655.000,659.000,657.000
245.253,650.000,656.000,658.000
252.819,650.000,656.000,663.000
260.380,650.000,652.000,660.000
267.933,657.000,655.000,652.000
275.480,659.000,653.000,660.000
283.021,664.000,661.000,654.000
290.556,655.000,656.000,652.000
298.084,654.000,659.000,655.000
305.607,659.000,651.000,654.000
313.123,662.000,652.000,652.000
320.635,665.000,653.000,663.000
328.139,650.000,654.000,659.000
335.638,658.000,658.000,655.000
343.130,654.000,651.000,659.000
350.616,666.000,663.000,656.000
358.095,658.000,661.000,659.000
365.569,662.000,662.000,656.000
373.037,653.000,655.000,659.000
380.498,660.000,667.000,663.000
387.956,658.000,662.000,668.000
395.405,659.000,662.000,666.000
402.849,669.000,665.000,660.000
410.287,661.000,659.000,661.000
417.719,658.000,665.000,662.000
425.144,674.000,665.000,662.000
432.563,667.000,670.000,670.000
439.977,662.000,660.000,663.000
447.386,661.000,664.000,660.000
454.788,664.000,671.000,667.000
462.183,672.000,669.000,675.000
469.574,673.000,670.000,674.000
476.957,671.000,680.000,672.000
484.335,669.000,675.000,677.000
491.706,675.000,677.000,676.000
499.072,664.000,668.000,675.000
506.432,667.000,668.000,666.000
513.788,655.000,665.000,656.000
521.136,655.000,651.000,660.000
528.479,642.000,646.000,650.000
535.815,655.000,648.000,645.000
543.145,655.000,637.000,651.000
550.469,651.000,654.000,641.000
557.788,645.000,646.000,644.000
565.100,650.000,651.000,647.000
572.408,643.000,649.000,642.000
579.711,643.000,648.000,648.000
587.006,650.000,645.000,643.000
594.295,642.000,642.000,642.000
601.579,647.000,642.000,643.000
608.856,638.000,645.000,642.000
616.129,641.000,643.000,646.000
623.394,642.000,646.000,646.000
630.655,639.000,650.000,639.000
637.911,637.000,635.000,645.000
645.160,643.000,644.000,639.000
652.403,645.000,641.000,643.000
659.640,643.000,642.000,635.000
666.872,640.000,639.000,641.000
674.097,656.000,645.000,639.000
681.317,642.000,639.000,644.000
688.531,636.000,639.000,642.000
695.739,643.000,647.000,635.000
702.944,638.000,639.000,651.000
710.141,648.000,650.000,644.000
717.332,648.000,648.000,641.000
724.517,644.000,644.000,643.000
731.697,641.000,643.000,638.000
738.871,646.000,643.000,637.000
746.039,644.000,647.000,643.000
753.202,636.000,643.000,640.000
760.360,638.000,641.000,641.000
767.512,649.000,651.000,646.000
774.657,642.000,639.000,646.000
781.797,647.000,647.000,636.000
788.932,639.000,641.000,646.000
796.060,643.000,641.000,646.000
803.184,648.000,649.000,641.000
810.301,645.000,652.000,647.000
817.413,647.000,644.000,642.000
824.520,643.000,644.000,641.000
831.622,647.000,642.000,646.000
838.716,639.000,652.000,641.000
845.806,646.000,646.000,639.000
852.890,651.000,639.000,640.000
859.968,644.000,648.000,640.000
867.040,639.000,637.000,642.000
874.106,640.000,638.000,643.000
881.168,645.000,639.000,643.000
888.226,638.000,643.000,643.000
895.276,641.000,636.000,644.000
902.321,647.000,640.000,646.000
909.360,640.000,641.000,643.000
916.393,640.000,642.000,640.000
923.422,649.000,639.000,652.000
930.444,639.000,642.000,642.000
937.461,633.000,641.000,641.000
944.475,642.000,651.000,639.000
951.481,645.000,650.000,646.000
958.482,644.000,652.000,646.000
965.476,647.000,655.000,646.000
972.466,647.000,646.000,650.000
979.451,640.000,648.000,647.000
986.428,649.000,646.000,642.000
993.402,640.000,646.000,647.000
1000.369,637.000,644.000,650.000
1007.333,639.000,643.000,635.000
1014.290,649.000,646.000,644.000
1021.241,641.000,644.000,649.000
1028.188,639.000,642.000,642.000
1035.128,644.000,637.000,652.000
1042.063,639.000,637.000,640.000
1048.994,651.000,643.000,645.000
1055.917,636.000,633.000,644.000
1062.838,635.000,646.000,640.000
1069.752,640.000,638.000,646.000
1076.660,634.000,640.000,642.000
1083.562,640.000,639.000,644.000
1090.460,642.000,639.000,646.000
1097.351,639.000,648.000,644.000
1104.238,633.000,642.000,639.000
1111.120,641.000,643.000,639.000
1117.995,642.000,646.000,635.000
1124.867,644.000,644.000,645.000
1131.733,636.000,638.000,647.000
1138.593,640.000,641.000,639.000
1145.447,639.000,639.000,643.000
1152.297,643.000,641.000,636.000
1159.141,643.000,636.000,641.000
1165.979,642.000,635.000,638.000
1172.813,639.000,642.000,644.000
1179.641,637.000,646.000,646.000
1186.465,642.000,636.000,638.000
1193.282,641.000,638.000,639.000
1200.095,639.000,639.000,643.000
1206.902,639.000,636.000,645.000
1213.703,647.000,643.000,648.000
1220.499,641.000,640.000,633.000
1227.291,639.000,640.000,643.000
1234.076,640.000,646.000,636.000
1240.858,645.000,645.000,634.000
1247.634,651.000,643.000,643.000
1254.405,643.000,640.000,639.000
1261.170,639.000,640.000,646.000
1267.929,643.000,641.000,642.000
1274.683,647.000,637.000,640.000
1281.433,639.000,634.000,639.000
1288.177,637.000,642.000,638.000
1294.916,641.000,639.000,635.000
1301.652,644.000,639.000,639.000
1308.380,639.000,634.000,642.000
1315.104,643.000,639.000,637.000
1321.822,634.000,635.000,637.000
1328.535,641.000,644.000,638.000
1335.243,641.000,640.000,639.000
1341.946,641.000,642.000,646.000
1348.643,641.000,636.000,636.000
1355.337,639.000,639.000,637.000
1362.025,641.000,639.000,642.000
1368.707,641.000,635.000,641.000
1375.384,637.000,643.000,639.000
1382.057,643.000,631.000,631.000
1388.723,639.000,638.000,639.000
1395.385,641.000,641.000,637.000
1402.042,639.000,640.000,650.000
1408.692,635.000,638.000,645.000
1415.341,640.000,632.000,636.000
1421.982,633.000,643.000,641.000
1428.619,636.000,632.000,635.000
1435.250,645.000,643.000,639.000
1441.877,639.000,636.000,644.000
1448.497,643.000,638.000,628.000
1455.114,639.000,640.000,637.000
1461.725,639.000,632.000,641.000
1468.331,643.000,642.000,640.000
1474.934,639.000,641.000,635.000
1481.530,634.000,637.000,644.000
1488.120,642.000,640.000,641.000
1494.707,647.000,638.000,644.000
1501.287,642.000,642.000,641.000
1507.863,639.000,634.000,638.000
1514.435,639.000,631.000,639.000
1521.001,642.000,636.000,637.000
1527.561,639.000,638.000,644.000
1534.118,641.000,638.000,641.000
1540.670,635.000,638.000,639.000
1547.216,637.000,645.000,635.000
1553.756,643.000,636.000,642.000
1560.293,647.000,641.000,640.000
1566.824,643.000,638.000,638.000
1573.350,646.000,639.000,642.000
1579.872,641.000,637.000,640.000
1586.390,649.000,639.000,640.000
1592.901,642.000,635.000,640.000
1599.408,639.000,640.000,642.000
1605.909,642.000,643.000,636.000
1612.405,641.000,642.000,641.000
1618.898,641.000,637.000,639.000
1625.384,637.000,643.000,642.000
1631.866,642.000,638.000,642.000
1638.345,641.000,644.000,640.000
1644.816,642.000,633.000,637.000
1651.285,642.000,636.000,642.000
1657.747,646.000,636.000,641.000
1664.204,644.000,641.000,646.000
1670.656,643.000,650.000,635.000
1677.104,635.000,638.000,635.000
1683.548,634.000,631.000,641.000
1689.986,639.000,646.000,643.000
1696.420,641.000,641.000,640.000
1702.848,638.000,638.000,643.000
1709.272,642.000,635.000,636.000
1715.691,646.000,640.000,639.000
1722.105,636.000,639.000,639.000
1728.514,641.000,644.000,636.000
1734.918,644.000,638.000,637.000
1741.318,644.000,637.000,636.000
1747.712,637.000,640.000,638.000
1754.104,638.000,640.000,643.000
1760.489,642.000,637.000,642.000
1766.870,647.000,642.000,635.000
1773.245,640.000,635.000,639.000
1779.616,639.000,641.000,642.000
1785.982,638.000,636.000,642.000
1792.343,638.000,632.000,643.000
1798.700,643.000,636.000,643.000
1805.052,634.000,640.000,638.000
1811.400,629.000,636.000,641.000
1816.157,636.000,639.000,639.000

File: 2025_08_22_BB1392_SiO2_8wtPctH2O_Glass_50X_532nm_6mW_Andor750_600gv_1030wn_3accum_30s_DePol_Pos2.csv
23.130,1629.000,1612.000,1631.000
30.879,1488.000,1499.000,1488.000
38.619,1605.000,1573.000,1568.000
46.355,1707.000,1695.000,1728.000
54.083,1747.000,1747.000,1747.000
61.807,1713.000,1730.000,1759.000
69.523,1698.000,1724.000,1717.000
77.233,1678.000,1660.000,1721.000
84.936,1603.000,1639.000,1623.000
92.632,1567.000,1634.000,1607.000
100.323,1579.000,1561.000,1558.000
108.007,1538.000,1493.000,1705.000
115.685,1458.000,1515.000,1461.000
123.359,1455.000,1450.000,1426.000
131.024,1381.000,1393.000,1403.000
138.683,1347.000,1394.000,1378.000
146.335,1340.000,1341.000,1312.000
153.982,1294.000,1294.000,1293.000
161.621,1260.000,1268.000,1294.000
169.256,1263.000,1246.000,1259.000
176.883,1235.000,1225.000,1220.000
184.504,1195.000,1199.000,1180.000
192.122,1212.000,1211.000,1216.000
199.731,1236.000,1191.000,1195.000
207.333,1178.000,1191.000,1161.000
214.929,1189.000,1218.000,1170.000
222.519,1185.000,1165.000,1149.000
230.104,1152.000,1185.000,1118.000
237.681,1180.000,1149.000,1148.000
245.253,1135.000,1169.000,1170.000
252.819,1169.000,1150.000,1150.000
260.380,1163.000,1196.000,1176.000
267.933,1166.000,1166.000,1157.000
275.480,1164.000,1153.000,1144.000
283.021,1219.000,1181.000,1166.000
290.556,1175.000,1190.000,1176.000
298.084,1146.000,1190.000,1166.000
305.607,1188.000,1222.000,1206.000
313.123,1210.000,1237.000,1205.000
320.635,1219.000,1226.000,1225.000
328.139,1222.000,1200.000,1227.000
335.638,1241.000,1236.000,1260.000
343.130,1235.000,1229.000,1220.000
350.616,1274.000,1260.000,1251.000
358.095,1278.000,1260.000,1248.000
365.569,1285.000,1329.000,1275.000
373.037,1301.000,1301.000,1311.000
380.498,1330.000,1297.000,1324.000
387.956,1370.000,1356.000,1320.000
395.405,1350.000,1329.000,1347.000
402.849,1360.000,1382.000,1374.000
410.287,1380.000,1403.000,1407.000
417.719,1431.000,1410.000,1398.000
425.144,1472.000,1413.000,1431.000
432.563,1428.000,1428.000,1441.000
439.977,1488.000,1471.000,1480.000
447.386,1496.000,1477.000,1466.000
454.788,1523.000,1660.000,1542.000
462.183,1579.000,1565.000,1595.000
469.574,1634.000,1601.000,1590.000
476.957,1649.000,1648.000,1664.000
484.335,1709.000,1647.000,1709.000
491.706,1650.000,1665.000,1669.000
499.072,1557.000,1552.000,1551.000
506.432,1396.000,1384.000,1409.000
513.788,1255.000,1258.000,1261.000
521.136,1115.000,1123.000,1153.000
528.479,1030.000,1047.000,1060.000
535.815,999.000,1028.000,1007.000
543.145,951.000,966.000,957.000
550.469,932.000,933.000,949.000
557.788,924.000,917.000,925.000
565.100,883.000,902.000,887.000
572.408,886.000,884.000,875.000
579.711,863.000,857.000,851.000
587.006,844.000,852.000,825.000
594.295,855.000,833.000,823.000
601.579,828.000,824.000,828.000
608.856,831.000,829.000,808.000
616.129,798.000,799.000,796.000
623.394,786.000,793.000,798.000
630.655,787.000,783.000,776.000
637.911,778.000,785.000,770.000
645.160,770.000,760.000,793.000
652.403,767.000,765.000,758.000
659.640,752.000,768.000,766.000
666.872,770.000,759.000,753.000
674.097,764.000,768.000,760.000
681.317,764.000,759.000,759.000
688.531,755.000,756.000,764.000
695.739,759.000,762.000,743.000
702.944,747.000,750.000,748.000
710.141,750.000,748.000,748.000
717.332,738.000,750.000,749.000
724.517,745.000,745.000,737.000
731.697,746.000,741.000,741.000
738.871,739.000,751.000,759.000
746.039,748.000,755.000,739.000
753.202,745.000,753.000,752.000
760.360,749.000,752.000,753.000
767.512,754.000,764.000,773.000
774.657,787.000,785.000,789.000
781.797,825.000,815.000,810.000
788.932,848.000,834.000,820.000
796.060,838.000,839.000,828.000
803.184,839.000,836.000,844.000
810.301,833.000,828.000,830.000
817.413,819.000,809.000,805.000
824.520,802.000,806.000,815.000
831.622,782.000,794.000,787.000
838.716,776.000,762.000,753.000
845.806,734.000,747.000,751.000
852.890,736.000,746.000,716.000
859.968,729.000,732.000,724.000
867.040,739.000,735.000,728.000
874.106,733.000,723.000,728.000
881.168,725.000,722.000,744.000
888.226,729.000,729.000,736.000
895.276,729.000,742.000,743.000
902.321,756.000,754.000,746.000
909.360,760.000,757.000,754.000
916.393,775.000,762.000,773.000
923.422,767.000,784.000,769.000
930.444,797.000,791.000,786.000
937.461,791.000,807.000,795.000
944.475,821.000,816.000,814.000
951.481,857.000,836.000,848.000
958.482,865.000,852.000,863.000
965.476,880.000,900.000,877.000
972.466,907.000,901.000,879.000
979.451,884.000,874.000,879.000
986.428,844.000,843.000,840.000
993.402,801.000,806.000,795.000
1000.369,772.000,773.000,787.000
1007.333,761.000,761.000,770.000
1014.290,741.000,734.000,751.000
1021.241,742.000,726.000,749.000
1028.188,730.000,735.000,732.000
1035.128,730.000,739.000,739.000
1042.063,740.000,727.000,727.000
1048.994,732.000,726.000,729.000
1055.917,727.000,744.000,737.000
1062.838,736.000,737.000,731.000
1069.752,727.000,743.000,737.000
1076.660,730.000,718.000,721.000
1083.562,710.000,709.000,725.000
1090.460,699.000,714.000,708.000
1097.351,707.000,697.000,699.000
1104.238,703.000,685.000,705.000
1111.120,687.000,684.000,692.000
1117.995,688.000,683.000,695.000
1124.867,695.000,689.000,692.000
1131.733,696.000,690.000,697.000
1138.593,702.000,695.000,701.000
1145.447,692.000,707.000,703.000
1152.297,701.000,710.000,693.000
1159.141,703.000,695.000,697.000
1165.979,695.000,699.000,705.000
1172.813,704.000,709.000,709.000
1179.641,702.000,698.000,712.000
1186.465,688.000,704.000,709.000
1193.282,701.000,699.000,716.000
1200.095,696.000,701.000,694.000
1206.902,703.000,713.000,688.000
1213.703,699.000,698.000,696.000
1220.499,692.000,680.000,687.000
1227.291,699.000,684.000,688.000
1234.076,703.000,688.000,683.000
1240.858,678.000,675.000,673.000
1247.634,672.000,676.000,675.000
1254.405,671.000,680.000,670.000
1261.170,671.000,685.000,679.000
1267.929,673.000,669.000,672.000
1274.683,688.000,676.000,677.000
1281.433,671.000,670.000,668.000
1288.177,660.000,672.000,667.000
1294.916,669.000,673.000,656.000
1301.652,670.000,676.000,662.000
1308.380,674.000,659.000,674.000
1315.104,669.000,671.000,674.000
1321.822,665.000,664.000,669.000
1328.535,666.000,671.000,672.000
1335.243,659.000,663.000,668.000
1341.946,663.000,676.000,670.000
1348.643,669.000,668.000,668.000
1355.337,674.000,663.000,665.000
1362.025,662.000,661.000,667.000
1368.707,667.000,677.000,667.000
1375.384,696.000,690.000,697.000
1382.057,674.000,673.000,680.000
1388.723,664.000,671.000,671.000
1395.385,674.000,668.000,674.000
1402.042,663.000,660.000,675.000
1408.692,667.000,658.000,667.000
1415.341,660.000,659.000,672.000
1421.982,666.000,664.000,670.000
1428.619,667.000,671.000,659.000
1435.250,669.000,673.000,671.000
1441.877,677.000,667.000,676.000
1448.497,670.000,669.000,669.000
1455.114,663.000,671.000,668.000
1461.725,661.000,669.000,678.000
1468.331,667.000,674.000,671.000
1474.934,671.000,663.000,675.000
1481.530,663.000,674.000,669.000
1488.120,668.000,671.000,670.000
1494.707,665.000,659.000,666.000
1501.287,675.000,669.000,663.000
1507.863,670.000,672.000,671.000
1514.435,665.000,669.000,668.000
1521.001,680.000,670.000,675.000
1527.561,671.000,670.000,669.000
1534.118,677.000,667.000,673.000
1540.670,673.000,671.000,665.000
1547.216,673.000,679.000,667.000
1553.756,686.000,671.000,676.000
1560.293,669.000,673.000,669.000
1566.824,672.000,670.000,665.000
1573.350,675.000,670.000,678.000
1579.872,676.000,679.000,673.000
1586.390,684.000,679.000,677.000
1592.901,668.000,681.000,675.000
1599.408,685.000,683.000,687.000
1605.909,688.000,695.000,681.000
1612.405,668.000,682.000,683.000
1618.898,689.000,689.000,692.000
1625.384,697.000,682.000,669.000
1631.866,688.000,689.000,686.000
1638.345,669.000,675.000,671.000
1644.816,681.000,671.000,677.000
1651.285,674.000,686.000,681.000
1657.747,666.000,671.000,681.000
1664.204,678.000,675.000,669.000
1670.656,670.000,675.000,665.000
1677.104,669.000,670.000,670.000
1683.548,673.000,675.000,672.000
1689.986,666.000,671.000,675.000
1696.420,676.000,679.000,668.000
1702.848,667.000,675.000,680.000
1709.272,671.000,668.000,667.000
1715.691,666.000,670.000,675.000
1722.105,671.000,666.000,663.000
1728.514,676.000,671.000,670.000
1734.918,673.000,667.000,668.000
1741.318,670.000,673.000,679.000
1747.712,668.000,673.000,677.000
1754.104,676.000,668.000,666.000
1760.489,672.000,660.000,672.000
1766.870,671.000,680.000,679.000
1773.245,681.000,669.000,666.000
1779.616,681.000,667.000,675.000
1785.982,679.000,678.000,675.000
1792.343,682.000,674.000,672.000
1798.700,682.000,683.000,692.000
1805.052,682.000,678.000,686.000
1811.400,679.000,685.000,685.000
1816.157,685.000,702.000,683.000