Folder: Data/Raman/Silica (part 58)

File: 2025_08_22_Nat_SiO2_Glass_XRD_50X_532nm_74mW_Kymera328_600gv_2000wn_3accum_30s_UnPol_Pos3.csv
19.981,65535.000,65535.000,65535.000
37.206,65535.000,65535.000,65535.000
54.398,61296.000,57618.000,57550.000
71.561,61863.000,57439.000,57328.000
88.692,59723.000,55180.000,55045.000
105.792,57126.000,52101.000,52475.000
122.858,53568.000,49462.000,49241.000
139.896,50669.000,46349.000,46378.000
156.902,48400.000,43754.000,44060.000
173.875,46740.000,42407.000,42810.000
190.821,46500.000,42120.000,41971.000
207.733,46421.000,42342.000,42223.000
224.615,47543.000,42965.000,43341.000
241.467,48874.000,44178.000,44132.000
258.289,50342.000,45752.000,45944.000
275.081,52880.000,47969.000,47869.000
291.839,55505.000,50227.000,50117.000
308.570,57949.000,52727.000,52108.000
325.271,59922.000,54094.000,54168.000
341.938,62162.000,56723.000,55880.000
358.579,64762.000,58789.000,57988.000
375.189,65535.000,61155.000,60422.000
391.770,65535.000,63200.000,62235.000
408.318,65535.000,64645.000,63752.000
424.839,65535.000,65535.000,64724.000
441.330,65535.000,65535.000,65467.000
457.790,65535.000,65535.000,64532.000
474.222,65535.000,64255.000,62990.000
490.624,65535.000,60968.000,60729.000
506.995,63151.000,56564.000,56125.000
523.340,49603.000,44724.000,44314.000
539.654,37783.000,34038.000,34361.000
555.940,32597.000,29070.000,29693.000
572.195,30370.000,26984.000,27794.000
588.423,29845.000,26584.000,27350.000
604.621,30182.000,27146.000,27950.000
620.790,30349.000,27219.000,27931.000
636.931,27710.000,24901.000,25853.000
653.044,25786.000,23069.000,23900.000
669.128,25166.000,22481.000,23196.000
685.182,25093.000,22075.000,23263.000
701.210,24880.000,22205.000,22928.000
717.209,24837.000,22172.000,23091.000
733.177,25115.000,22336.000,23471.000
749.119,25334.000,22597.000,23901.000
765.033,26742.000,23927.000,24928.000
780.920,29264.000,26226.000,27258.000
796.776,32144.000,28885.000,29942.000
812.606,32692.000,29330.000,30100.000
828.410,31275.000,28146.000,29039.000
844.183,29378.000,26198.000,27202.000
859.930,26877.000,23879.000,24972.000
875.650,24750.000,21921.000,23260.000
891.339,23900.000,21148.000,22370.000
907.004,23787.000,21001.000,22430.000
922.642,23695.000,20964.000,22317.000
938.251,23694.000,20947.000,22391.000
953.832,23887.000,21114.000,22548.000
969.388,23961.000,21281.000,22647.000
984.916,24392.000,21749.000,23104.000
1000.416,25009.000,22118.000,23553.000
1015.891,25770.000,23008.000,24339.000
1031.338,26820.000,24008.000,25277.000
1046.757,27900.000,24894.000,26635.000
1062.151,28699.000,25664.000,27081.000
1077.519,28824.000,25774.000,27050.000
1092.859,28108.000,25032.000,26329.000
1108.171,27380.000,24436.000,26161.000
1123.459,26992.000,23954.000,25398.000
1138.721,27277.000,23973.000,25604.000
1153.954,27705.000,24539.000,26080.000
1169.162,28243.000,24996.000,26503.000
1184.345,28370.000,25332.000,26658.000
1199.501,28496.000,25178.000,27018.000
1214.629,28479.000,25283.000,26939.000
1229.734,28124.000,25027.000,26621.000
1244.812,27909.000,24792.000,26257.000
1259.864,27541.000,24535.000,25892.000
1274.889,27556.000,24059.000,25781.000
1289.891,27359.000,24055.000,25731.000
1304.866,27376.000,24375.000,25688.000
1319.814,27775.000,24283.000,25840.000
1334.738,27799.000,24500.000,25906.000
1349.637,27867.000,24771.000,26151.000
1364.509,28024.000,24735.000,26118.000
1379.357,28175.000,25041.000,26563.000
1394.180,28389.000,25049.000,26596.000
1408.978,28758.000,25379.000,26900.000
1423.747,28858.000,25689.000,27158.000
1438.495,29495.000,25694.000,27527.000
1453.218,29526.000,25982.000,27612.000
1467.913,29923.000,26242.000,27889.000
1482.586,29955.000,26431.000,28189.000
1497.233,30302.000,27057.000,28575.000
1511.854,30827.000,27346.000,28825.000
1526.452,30920.000,27526.000,29087.000
1541.026,31586.000,27640.000,29661.000
1555.575,31797.000,28323.000,29915.000
1570.098,32043.000,28505.000,30200.000
1584.598,32338.000,28531.000,30458.000
1599.073,32293.000,28651.000,30477.000
1613.523,31953.000,28501.000,30684.000
1627.950,31846.000,28156.000,30402.000
1642.353,31283.000,27956.000,30072.000
1656.729,31194.000,27701.000,29741.000
1671.084,30988.000,27465.000,29698.000
1685.415,30838.000,27537.000,29534.000
1699.721,30770.000,27405.000,29345.000
1714.002,30611.000,27318.000,29464.000
1728.262,30713.000,27216.000,29423.000
1742.497,30524.000,27203.000,29558.000
1756.707,30818.000,27378.000,29495.000
1770.894,30726.000,27463.000,29432.000
1785.059,30911.000,27547.000,29810.000
1799.198,31159.000,27682.000,29984.000
1813.314,31312.000,27867.000,29875.000
1827.408,31316.000,27941.000,30170.000
1841.478,31756.000,28179.000,30301.000
1855.524,31848.000,28199.000,30375.000
1869.547,32131.000,28442.000,30520.000
1883.547,32232.000,28572.000,31016.000
1897.525,32223.000,28931.000,31128.000
1911.477,32895.000,28951.000,31421.000
1925.409,32744.000,29440.000,31482.000
1939.317,33712.000,29518.000,31902.000
1953.201,33315.000,29245.000,31685.000
1967.063,33344.000,29769.000,32131.000
1980.903,33571.000,29868.000,32369.000
1994.718,33628.000,29788.000,32196.000
2008.513,33520.000,30088.000,32619.000
2022.284,33667.000,30126.000,32675.000
2036.031,33959.000,30212.000,32694.000
2049.758,34161.000,30382.000,32999.000
2063.462,34087.000,30291.000,33379.000
2077.145,34319.000,30692.000,33346.000
2090.802,34435.000,30823.000,33637.000
2104.439,34497.000,30815.000,33704.000
2118.054,34633.000,30927.000,33778.000
2131.644,34965.000,31255.000,33971.000
2145.215,34837.000,31207.000,34084.000
2158.763,34552.000,31080.000,34022.000
2172.290,34904.000,31368.000,34157.000
2185.793,35065.000,31511.000,34326.000
2199.275,35343.000,31526.000,34712.000
2212.736,35491.000,31773.000,34669.000
2226.174,35723.000,31752.000,34849.000
2239.591,35669.000,32134.000,34988.000
2252.985,35732.000,32208.000,35024.000
2266.359,35664.000,32018.000,35257.000
2279.710,35928.000,32347.000,35022.000
2293.040,35988.000,32241.000,35309.000
2306.349,36238.000,32521.000,35794.000
2319.635,36423.000,33006.000,36016.000
2332.901,36648.000,33186.000,36169.000
2346.147,36724.000,33188.000,36207.000
2359.370,36915.000,33169.000,36389.000
2372.571,36925.000,33257.000,36696.000
2385.751,37323.000,33732.000,36822.000
2398.912,37345.000,33796.000,36538.000
2412.048,37566.000,33853.000,36767.000
2425.167,37633.000,34097.000,37085.000
2438.264,37376.000,34259.000,37053.000
2451.339,37846.000,34246.000,37238.000
2464.393,37915.000,34104.000,37275.000
2477.427,37856.000,34258.000,37441.000
2490.440,37998.000,34308.000,37249.000
2503.432,38145.000,34208.000,37311.000
2516.404,38422.000,34588.000,37647.000
2529.355,38453.000,34711.000,37845.000
2542.284,38564.000,34849.000,38065.000
2555.195,38677.000,34624.000,37891.000
2568.084,38929.000,34829.000,38078.000
2580.952,38778.000,35025.000,38085.000
2593.800,38743.000,34995.000,38194.000
2606.629,39023.000,35339.000,38285.000
2619.437,39025.000,35362.000,38242.000
2632.224,38866.000,35224.000,38387.000
2644.992,39134.000,35436.000,38501.000
2657.739,39164.000,35526.000,38534.000
2670.466,39669.000,35661.000,38912.000
2683.172,39183.000,35472.000,38558.000
2695.861,39348.000,35873.000,38865.000
2708.528,39107.000,35605.000,38690.000
2721.174,39112.000,35424.000,38592.000
2733.801,39108.000,35693.000,38723.000
2746.409,39035.000,35324.000,38367.000
2758.996,38839.000,35153.000,38370.000
2771.564,38985.000,35477.000,38619.000
2784.114,39151.000,35387.000,38701.000
2796.642,39363.000,35638.000,38768.000
2809.150,39130.000,35389.000,38939.000
2821.640,39579.000,35577.000,39104.000
2834.111,39593.000,36111.000,39104.000
2846.560,40059.000,36108.000,39419.000
2858.992,40112.000,36402.000,39510.000
2871.404,40508.000,36385.000,39907.000
2883.797,40453.000,36556.000,40057.000
2896.169,40733.000,37127.000,40409.000
2908.523,41265.000,37406.000,40523.000
2920.859,41515.000,37352.000,41147.000
2933.173,41488.000,37555.000,41061.000
2945.470,41764.000,37628.000,41287.000
2957.748,41627.000,37592.000,41252.000
2970.006,41682.000,37853.000,41298.000
2982.246,41890.000,37959.000,41451.000
2994.467,41553.000,38042.000,41373.000
3006.667,41441.000,37404.000,41276.000
3018.851,41312.000,37590.000,41423.000
3031.016,41742.000,37671.000,41491.000
3043.161,41818.000,38242.000,41818.000
3055.287,41815.000,38255.000,41850.000
3067.395,42214.000,43319.000,42097.000
3079.485,41882.000,38165.000,41811.000
3091.555,41853.000,38148.000,41643.000
3103.608,41721.000,37659.000,41531.000
3115.643,41683.000,37984.000,41825.000
3127.658,41543.000,38022.000,41738.000
3139.654,41714.000,37995.000,42033.000
3151.634,41695.000,38038.000,41824.000
3163.594,41903.000,38195.000,41843.000
3175.535,41615.000,37936.000,41772.000
3187.459,41875.000,38427.000,41700.000
3199.365,41759.000,38035.000,41624.000
3211.253,42116.000,38231.000,41830.000
3223.122,42146.000,38582.000,41998.000
3234.974,42155.000,38827.000,42193.000
3246.808,42451.000,38873.000,42392.000
3258.622,42360.000,38999.000,42434.000
3270.419,42536.000,38963.000,42366.000
3282.199,42756.000,39275.000,42870.000
3293.962,42561.000,39095.000,42688.000
3305.705,42766.000,39220.000,42776.000
3317.431,42933.000,39163.000,42727.000
3329.139,42842.000,39041.000,42785.000
3340.829,42926.000,39203.000,42953.000
3352.502,42682.000,39231.000,42985.000
3364.158,42873.000,39579.000,43026.000
3375.796,42815.000,39638.000,43231.000
3387.415,42848.000,39789.000,43387.000
3399.018,43414.000,39802.000,43591.000
3410.604,43166.000,39596.000,43418.000
3422.171,43272.000,39791.000,43246.000
3433.722,43216.000,39571.000,43249.000
3445.255,43030.000,39668.000,43201.000
3456.771,42967.000,39483.000,43138.000
3468.269,42585.000,39559.000,43174.000
3479.751,42673.000,39504.000,43220.000
3491.215,42776.000,39574.000,42933.000
3502.662,42780.000,39417.000,43466.000
3514.091,42728.000,39591.000,43053.000
3525.505,43054.000,39619.000,43431.000
3536.900,42899.000,39385.000,43543.000
3548.279,43294.000,39891.000,43647.000
3559.641,43440.000,40184.000,44062.000
3570.985,43342.000,40171.000,44496.000
3582.313,43703.000,40353.000,44355.000
3590.799,43799.000,40836.000,44643.000

File: 2025_08_22_Quartz_XRD_Plate_Std_50X_532nm_74mW_Kymera328_300gv_2000wn_1accum_5sec_DePol_spec.csv
-2633.671,3039.000
-2587.503,3031.000
-2541.538,3033.000
-2495.768,3040.000
-2450.194,3038.000
-2404.815,3038.000
-2359.630,3035.000
-2314.635,3038.000
-2269.831,3031.000
-2225.221,3030.000
-2180.797,3030.000
-2136.557,3037.000
-2092.508,3029.000
-2048.642,3032.000
-2004.959,3034.000
-1961.459,3035.000
-1918.143,3035.000
-1875.004,3039.000
-1832.047,3037.000
-1789.269,3040.000
-1746.666,3037.000
-1704.237,3038.000
-1661.988,3035.000
-1619.908,3047.000
-1578.003,3030.000
-1536.271,3036.000
-1494.706,3043.000
-1453.313,3040.000
-1412.088,3042.000
-1371.031,3044.000
-1330.139,3048.000
-1289.414,3041.000
-1248.853,3051.000
-1208.454,3045.000
-1168.219,3052.000
-1128.146,3063.000
-1088.232,3058.000
-1048.479,3054.000
-1008.886,3048.000
-969.447,3066.000
-930.168,3060.000
-891.043,3071.000
-852.072,3072.000
-813.257,3080.000
-774.595,3110.000
-736.085,3094.000
-697.725,3091.000
-659.518,3115.000
-621.457,3119.000
-583.545,3139.000
-545.781,3197.000
-508.167,3683.000
-470.697,4563.000
-433.370,8060.000
-396.191,5164.000
-359.152,3555.000
-322.259,3673.000
-285.508,3562.000
-248.895,4491.000
-212.425,6764.000
-176.091,11847.000
-139.897,8419.000
-103.843,8495.000
-67.925,6065.000
-32.142,7548.000
3.504,15259.000
39.017,21534.000
74.396,8839.000
109.639,7026.000
144.754,11381.000
179.733,12785.000
214.582,19150.000
249.303,21583.000
283.893,10319.000
318.354,5313.000
352.688,4796.000
386.895,6241.000
420.971,8967.000
454.925,14713.000
488.754,49027.000
522.458,23463.000
556.038,6510.000
589.495,4526.000
622.828,4025.000
656.039,3919.000
689.132,3887.000
722.100,4380.000
754.953,3925.000
787.685,3934.000
820.297,4887.000
852.793,4531.000
885.169,3847.000
917.429,3788.000
949.576,3729.000
981.604,3577.000
1013.521,3453.000
1045.321,3468.000
1077.007,3625.000
1108.582,3750.000
1140.044,3710.000
1171.394,4573.000
1202.634,4171.000
1233.764,3981.000
1264.780,3962.000
1295.690,3539.000
1326.492,3324.000
1357.183,3290.000
1387.768,3268.000
1418.247,3280.000
1448.617,3326.000
1478.882,3352.000
1509.041,3312.000
1539.096,3346.000
1569.048,3349.000
1598.895,3406.000
1628.637,3418.000
1658.279,3388.000
1687.817,3381.000
1717.252,3308.000
1746.589,3301.000
1775.826,3301.000
1804.960,3304.000
1833.996,3284.000
1862.933,3299.000
1891.769,3295.000
1920.510,3284.000
1949.153,3289.000
1977.697,3289.000
2006.148,3301.000
2034.499,3305.000
2062.757,3282.000
2090.918,3308.000
2118.984,3331.000
2146.958,3335.000
2174.839,3316.000
2202.624,3329.000
2230.317,3328.000
2257.920,3324.000
2285.428,3340.000
2312.846,3352.000
2340.175,3368.000
2367.410,3383.000
2394.558,3356.000
2421.614,3346.000
2448.582,3354.000
2475.462,3339.000
2502.254,3332.000
2528.956,3327.000
2555.573,3335.000
2582.103,3311.000
2608.542,3316.000
2634.900,3330.000
2661.171,3307.000
2687.355,3325.000
2713.457,3340.000
2739.474,3358.000
2765.405,3344.000
2791.252,3352.000
2817.019,3359.000
2842.701,3366.000
2868.302,3372.000
2893.820,3389.000
2919.256,3378.000
2944.611,3336.000
2969.885,3319.000
2995.078,3294.000
3020.192,3312.000
3045.228,3323.000
3070.181,3322.000
3095.057,3346.000
3119.854,3326.000
3144.573,3332.000
3169.215,3310.000
3193.777,3318.000
3218.265,3315.000
3242.675,3306.000
3267.007,3325.000
3291.267,3309.000
3315.447,3286.000
3339.553,3299.000
3363.585,3303.000
3387.543,3290.000
3411.425,3308.000
3435.233,3305.000
3458.969,3325.000
3482.630,3290.000
3506.219,3317.000
3529.738,3309.000
3553.180,3305.000
3576.554,3299.000
3599.853,3287.000
3623.083,3275.000
3646.243,3282.000
3669.331,3252.000
3692.348,3251.000
3715.297,3275.000
3738.176,3265.000
3760.983,3267.000
3783.723,3270.000
3806.395,3296.000
3828.997,3257.000
3851.533,3284.000
3874.000,3258.000
3896.401,3275.000
3918.733,3259.000
3940.998,3271.000
3963.197,3252.000
3985.330,3243.000
4007.397,3236.000
4029.397,3233.000
4051.335,3232.000
4073.204,3216.000
4095.011,3232.000
4116.753,3246.000
4138.430,3245.000
4160.044,3230.000
4181.594,3249.000
4203.079,3241.000
4224.503,3250.000
4245.864,3244.000
4267.161,3238.000
4288.398,3223.000
4309.573,3208.000
4330.682,3217.000
4351.733,3216.000
4372.724,3203.000
4393.652,3216.000
4414.521,3194.000
4435.329,3203.000
4456.075,3187.000
4476.762,3200.000
4497.391,3208.000
4517.959,3200.000
4538.469,3195.000
4558.920,3200.000
4579.311,3177.000
4599.647,3182.000
4619.922,3191.000
4640.138,3191.000
4660.299,3187.000
4680.403,3180.000
4700.449,3181.000
4720.437,3183.000
4740.371,3174.000
4760.245,3165.000
4780.066,3166.000
4799.829,3162.000
4819.538,3166.000
4839.192,3162.000
4858.787,3178.000
4878.332,3183.000
4897.820,3158.000
4917.252,3177.000
4936.633,3169.000
4955.958,3182.000
4975.229,3164.000
4989.649,3158.000

File: 2025_08_22_Quartz_XRD_Plate_Std_50X_532nm_74mW_Kymera328_300gv_2000wn_1accum_5sec_Pol_spec.csv
-2633.671,3042.000
-2587.503,3042.000
-2541.538,3035.000
-2495.768,3036.000
-2450.194,3030.000
-2404.815,3031.000
-2359.630,3030.000
-2314.635,3034.000
-2269.831,3031.000
-2225.221,3032.000
-2180.797,3040.000
-2136.557,3028.000
-2092.508,3026.000
-2048.642,3029.000
-2004.959,3037.000
-1961.459,3037.000
-1918.143,3032.000
-1875.004,3030.000
-1832.047,3028.000
-1789.269,3029.000
-1746.666,3029.000
-1704.237,3036.000
-1661.988,3038.000
-1619.908,3034.000
-1578.003,3039.000
-1536.271,3038.000
-1494.706,3039.000
-1453.313,3040.000
-1412.088,3032.000
-1371.031,3042.000
-1330.139,3044.000
-1289.414,3043.000
-1248.853,3044.000
-1208.454,3048.000
-1168.219,3051.000
-1128.146,3053.000
-1088.232,3051.000
-1048.479,3054.000
-1008.886,3059.000
-969.447,3064.000
-930.168,3066.000
-891.043,3073.000
-852.072,3064.000
-813.257,3084.000
-774.595,3107.000
-736.085,3091.000
-697.725,3091.000
-659.518,3126.000
-621.457,3106.000
-583.545,3113.000
-545.781,3185.000
-508.167,3669.000
-470.697,4464.000
-433.370,7871.000
-396.191,5083.000
-359.152,3547.000
-322.259,3662.000
-285.508,3536.000
-248.895,4400.000
-212.425,6441.000
-176.091,11162.000
-139.897,8029.000
-103.843,8503.000
-67.925,5889.000
-32.142,6480.000
3.504,13252.000
39.017,13582.000
74.396,8739.000
109.639,6758.000
144.754,10988.000
179.733,11996.000
214.582,18091.000
249.303,20287.000
283.893,9839.000
318.354,5181.000
352.688,4691.000
386.895,5884.000
420.971,8401.000
454.925,13489.000
488.754,44765.000
522.458,21299.000
556.038,6215.000
589.495,4424.000
622.828,3953.000
656.039,3846.000
689.132,3842.000
722.100,4275.000
754.953,3883.000
787.685,3826.000
820.297,4762.000
852.793,4452.000
885.169,3806.000
917.429,3746.000
949.576,3668.000
981.604,3526.000
1013.521,3436.000
1045.321,3443.000
1077.007,3614.000
1108.582,3703.000
1140.044,3665.000
1171.394,4428.000
1202.634,4050.000
1233.764,3911.000
1264.780,3887.000
1295.690,3505.000
1326.492,3309.000
1357.183,3264.000
1387.768,3263.000
1418.247,3271.000
1448.617,3293.000
1478.882,3327.000
1509.041,3288.000
1539.096,3309.000
1569.048,3325.000
1598.895,3375.000
1628.637,3368.000
1658.279,3417.000
1687.817,3323.000
1717.252,3279.000
1746.589,3269.000
1775.826,3257.000
1804.960,3277.000
1833.996,3275.000
1862.933,3249.000
1891.769,3275.000
1920.510,3271.000
1949.153,3272.000
1977.697,3267.000
2006.148,3274.000
2034.499,3281.000
2062.757,3288.000
2090.918,3283.000
2118.984,3297.000
2146.958,3298.000
2174.839,3313.000
2202.624,3296.000
2230.317,3280.000
2257.920,3297.000
2285.428,3333.000
2312.846,3338.000
2340.175,3364.000
2367.410,3352.000
2394.558,3314.000
2421.614,3325.000
2448.582,3331.000
2475.462,3306.000
2502.254,3318.000
2528.956,3326.000
2555.573,3301.000
2582.103,3297.000
2608.542,3306.000
2634.900,3311.000
2661.171,3309.000
2687.355,3293.000
2713.457,3321.000
2739.474,3303.000
2765.405,3339.000
2791.252,3325.000
2817.019,3321.000
2842.701,3342.000
2868.302,3340.000
2893.820,3405.000
2919.256,3365.000
2944.611,3348.000
2969.885,3314.000
2995.078,3307.000
3020.192,3300.000
3045.228,3296.000
3070.181,3296.000
3095.057,3308.000
3119.854,3308.000
3144.573,3318.000
3169.215,3320.000
3193.777,3313.000
3218.265,3308.000
3242.675,3319.000
3267.007,3300.000
3291.267,3293.000
3315.447,3301.000
3339.553,3286.000
3363.585,3295.000
3387.543,3290.000
3411.425,3287.000
3435.233,3292.000
3458.969,3303.000
3482.630,3311.000
3506.219,3325.000
3529.738,3293.000
3553.180,3309.000
3576.554,3287.000
3599.853,3276.000
3623.083,3271.000
3646.243,3270.000
3669.331,3247.000
3692.348,3244.000
3715.297,3253.000
3738.176,3245.000
3760.983,3265.000
3783.723,3262.000
3806.395,3250.000
3828.997,3266.000
3851.533,3270.000
3874.000,3270.000
3896.401,3272.000
3918.733,3285.000
3940.998,3253.000
3963.197,3240.000
3985.330,3251.000
4007.397,3214.000
4029.397,3227.000
4051.335,3243.000
4073.204,3215.000
4095.011,3223.000
4116.753,3238.000
4138.430,3244.000
4160.044,3239.000
4181.594,3232.000
4203.079,3235.000
4224.503,3223.000
4245.864,3234.000
4267.161,3214.000
4288.398,3211.000
4309.573,3216.000
4330.682,3214.000
4351.733,3210.000
4372.724,3191.000
4393.652,3196.000
4414.521,3214.000
4435.329,3192.000
4456.075,3193.000
4476.762,3198.000
4497.391,3202.000
4517.959,3204.000
4538.469,3204.000
4558.920,3195.000
4579.311,3189.000
4599.647,3212.000
4619.922,3198.000
4640.138,3192.000
4660.299,3187.000
4680.403,3181.000
4700.449,3175.000
4720.437,3155.000
4740.371,3167.000
4760.245,3162.000
4780.066,3173.000
4799.829,3174.000
4819.538,3165.000
4839.192,3184.000
4858.787,3160.000
4878.332,3167.000
4897.820,3166.000
4917.252,3160.000
4936.633,3146.000
4955.958,3146.000
4975.229,3159.000
4989.649,3166.000

File: 2025_08_22_Quartz_XRD_Plate_Std_50X_532nm_74mW_Kymera328_300gv_2000wn_1accum_5sec_UnPol_spec.csv
-2633.671,3044.000
-2587.503,3040.000
-2541.538,3041.000
-2495.768,3047.000
-2450.194,3035.000
-2404.815,3033.000
-2359.630,3037.000
-2314.635,3037.000
-2269.831,3043.000
-2225.221,3034.000
-2180.797,3035.000
-2136.557,3031.000
-2092.508,3032.000
-2048.642,3035.000
-2004.959,3035.000
-1961.459,3031.000
-1918.143,3033.000
-1875.004,3028.000
-1832.047,3040.000
-1789.269,3031.000
-1746.666,3033.000
-1704.237,3036.000
-1661.988,3032.000
-1619.908,3038.000
-1578.003,3043.000
-1536.271,3044.000
-1494.706,3041.000
-1453.313,3038.000
-1412.088,3046.000
-1371.031,3052.000
-1330.139,3052.000
-1289.414,3042.000
-1248.853,3037.000
-1208.454,3049.000
-1168.219,3044.000
-1128.146,3068.000
-1088.232,3053.000
-1048.479,3048.000
-1008.886,3066.000
-969.447,3065.000
-930.168,3066.000
-891.043,3072.000
-852.072,3077.000
-813.257,3083.000
-774.595,3120.000
-736.085,3102.000
-697.725,3098.000
-659.518,3117.000
-621.457,3131.000
-583.545,3148.000
-545.781,3204.000
-508.167,3699.000
-470.697,4578.000
-433.370,8061.000
-396.191,5124.000
-359.152,3556.000
-322.259,3695.000
-285.508,3585.000
-248.895,4465.000
-212.425,6755.000
-176.091,11977.000
-139.897,8528.000
-103.843,8562.000
-67.925,6149.000
-32.142,7329.000
3.504,14879.000
39.017,21715.000
74.396,8990.000
109.639,6911.000
144.754,11537.000
179.733,12732.000
214.582,19385.000
249.303,22061.000
283.893,10387.000
318.354,5308.000
352.688,4841.000
386.895,6281.000
420.971,8901.000
454.925,14754.000
488.754,49416.000
522.458,23796.000
556.038,6578.000
589.495,4509.000
622.828,4046.000
656.039,3934.000
689.132,3938.000
722.100,4371.000
754.953,3929.000
787.685,3927.000
820.297,4880.000
852.793,4605.000
885.169,3910.000
917.429,3811.000
949.576,3760.000
981.604,3581.000
1013.521,3461.000
1045.321,3458.000
1077.007,3627.000
1108.582,3776.000
1140.044,3732.000
1171.394,4585.000
1202.634,4182.000
1233.764,3974.000
1264.780,4006.000
1295.690,3584.000
1326.492,3335.000
1357.183,3288.000
1387.768,3290.000
1418.247,3325.000
1448.617,3340.000
1478.882,3356.000
1509.041,3344.000
1539.096,3335.000
1569.048,3395.000
1598.895,3422.000
1628.637,3452.000
1658.279,3394.000
1687.817,3355.000
1717.252,3323.000
1746.589,3307.000
1775.826,3310.000
1804.960,3297.000
1833.996,3301.000
1862.933,3288.000
1891.769,3308.000
1920.510,3296.000
1949.153,3299.000
1977.697,3315.000
2006.148,3306.000
2034.499,3306.000
2062.757,3325.000
2090.918,3317.000
2118.984,3327.000
2146.958,3340.000
2174.839,3340.000
2202.624,3327.000
2230.317,3314.000
2257.920,3334.000
2285.428,3342.000
2312.846,3377.000
2340.175,3396.000
2367.410,3386.000
2394.558,3355.000
2421.614,3368.000
2448.582,3383.000
2475.462,3348.000
2502.254,3349.000
2528.956,3358.000
2555.573,3347.000
2582.103,3327.000
2608.542,3330.000
2634.900,3320.000
2661.171,3347.000
2687.355,3323.000
2713.457,3353.000
2739.474,3357.000
2765.405,3374.000
2791.252,3355.000
2817.019,3355.000
2842.701,3348.000
2868.302,3420.000
2893.820,3411.000
2919.256,3393.000
2944.611,3351.000
2969.885,3338.000
2995.078,3339.000
3020.192,3342.000
3045.228,3332.000
3070.181,3352.000
3095.057,3353.000
3119.854,3358.000
3144.573,3351.000
3169.215,3357.000
3193.777,3358.000
3218.265,3343.000
3242.675,3331.000
3267.007,3326.000
3291.267,3326.000
3315.447,3327.000
3339.553,3313.000
3363.585,3312.000
3387.543,3315.000
3411.425,3318.000
3435.233,3322.000
3458.969,3309.000
3482.630,3334.000
3506.219,3326.000
3529.738,3323.000
3553.180,3309.000
3576.554,3308.000
3599.853,3272.000
3623.083,3291.000
3646.243,3293.000
3669.331,3275.000
3692.348,3292.000
3715.297,3266.000
3738.176,3273.000
3760.983,3268.000
3783.723,3266.000
3806.395,3304.000
3828.997,3267.000
3851.533,3287.000
3874.000,3282.000
3896.401,3284.000
3918.733,3278.000
3940.998,3264.000
3963.197,3271.000
3985.330,3252.000
4007.397,3255.000
4029.397,3229.000
4051.335,3251.000
4073.204,3247.000
4095.011,3241.000
4116.753,3239.000
4138.430,3256.000
4160.044,3262.000
4181.594,3252.000
4203.079,3260.000
4224.503,3265.000
4245.864,3243.000
4267.161,3240.000
4288.398,3219.000
4309.573,3226.000
4330.682,3233.000
4351.733,3215.000
4372.724,3218.000
4393.652,3212.000
4414.521,3209.000
4435.329,3220.000
4456.075,3203.000
4476.762,3207.000
4497.391,3209.000
4517.959,3214.000
4538.469,3196.000
4558.920,3218.000
4579.311,3205.000
4599.647,3208.000
4619.922,3203.000
4640.138,3203.000
4660.299,3194.000
4680.403,3184.000
4700.449,3168.000
4720.437,3179.000
4740.371,3177.000
4760.245,3193.000
4780.066,3184.000
4799.829,3186.000
4819.538,3179.000
4839.192,3172.000
4858.787,3167.000
4878.332,3194.000
4897.820,3175.000
4917.252,3182.000
4936.633,3174.000
4955.958,3178.000
4975.229,3166.000
4989.649,3166.000