Folder: Data/Raman/Silica (part 102)

File: 2025_09_09_Qtz_50X_532nm_74mW_Andor750_600gv_1030wn_3accum_10s_DePol_Pos2.csv
23.130,820.000,822.000,842.000
30.879,720.000,738.000,716.000
38.619,748.000,737.000,741.000
46.355,783.000,775.000,777.000
54.083,761.000,756.000,756.000
61.807,742.000,754.000,752.000
69.523,830.000,830.000,827.000
77.233,749.000,746.000,746.000
84.936,782.000,779.000,776.000
92.632,793.000,774.000,784.000
100.323,787.000,767.000,763.000
108.007,745.000,743.000,752.000
115.685,777.000,784.000,776.000
123.359,779.000,769.000,775.000
131.024,991.000,991.000,987.000
138.683,1319.000,1328.000,1298.000
146.335,822.000,809.000,808.000
153.982,783.000,778.000,799.000
161.621,765.000,772.000,778.000
169.256,748.000,768.000,758.000
176.883,767.000,778.000,762.000
184.504,800.000,797.000,803.000
192.122,856.000,856.000,871.000
199.731,1008.000,997.000,1001.000
207.333,1239.000,1220.000,1228.000
214.929,1357.000,1343.000,1341.000
222.519,1147.000,1161.000,1129.000
230.104,899.000,927.000,926.000
237.681,854.000,854.000,839.000
245.253,803.000,808.000,801.000
252.819,795.000,791.000,807.000
260.380,808.000,826.000,813.000
267.933,1396.000,1396.000,1402.000
275.480,957.000,953.000,969.000
283.021,761.000,766.000,755.000
290.556,737.000,738.000,746.000
298.084,725.000,732.000,737.000
305.607,730.000,725.000,723.000
313.123,725.000,720.000,723.000
320.635,715.000,717.000,734.000
328.139,721.000,704.000,720.000
335.638,714.000,726.000,727.000
343.130,727.000,732.000,721.000
350.616,729.000,726.000,718.000
358.095,830.000,830.000,848.000
365.569,741.000,736.000,740.000
373.037,764.000,762.000,782.000
380.498,741.000,734.000,729.000
387.956,723.000,733.000,723.000
395.405,773.000,782.000,793.000
402.849,771.000,782.000,753.000
410.287,733.000,747.000,739.000
417.719,724.000,740.000,717.000
425.144,732.000,749.000,735.000
432.563,735.000,752.000,740.000
439.977,756.000,756.000,748.000
447.386,778.000,795.000,794.000
454.788,1008.000,1022.000,1010.000
462.183,1566.000,1521.000,1548.000
469.574,3272.000,3278.000,3305.000
476.957,1371.000,1381.000,1386.000
484.335,970.000,962.000,965.000
491.706,857.000,858.000,854.000
499.072,780.000,793.000,793.000
506.432,774.000,772.000,772.000
513.788,762.000,773.000,749.000
521.136,770.000,747.000,747.000
528.479,779.000,779.000,771.000
535.815,787.000,782.000,777.000
543.145,749.000,749.000,739.000
550.469,745.000,750.000,738.000
557.788,744.000,736.000,734.000
565.100,733.000,726.000,734.000
572.408,735.000,736.000,731.000
579.711,731.000,735.000,728.000
587.006,732.000,732.000,730.000
594.295,727.000,734.000,722.000
601.579,737.000,730.000,731.000
608.856,740.000,720.000,723.000
616.129,724.000,738.000,727.000
623.394,732.000,716.000,716.000
630.655,718.000,728.000,725.000
637.911,723.000,728.000,716.000
645.160,725.000,735.000,723.000
652.403,730.000,720.000,731.000
659.640,717.000,715.000,714.000
666.872,709.000,731.000,722.000
674.097,714.000,720.000,723.000
681.317,728.000,734.000,719.000
688.531,750.000,731.000,732.000
695.739,781.000,781.000,780.000
702.944,742.000,749.000,759.000
710.141,728.000,723.000,727.000
717.332,728.000,735.000,722.000
724.517,735.000,733.000,730.000
731.697,730.000,734.000,729.000
738.871,734.000,722.000,732.000
746.039,722.000,716.000,724.000
753.202,720.000,718.000,731.000
760.360,719.000,732.000,731.000
767.512,726.000,726.000,732.000
774.657,749.000,746.000,767.000
781.797,762.000,771.000,767.000
788.932,779.000,765.000,771.000
796.060,840.000,864.000,839.000
803.184,1160.000,1149.000,1151.000
810.301,1056.000,1052.000,1039.000
817.413,807.000,800.000,800.000
824.520,759.000,756.000,751.000
831.622,746.000,743.000,745.000
838.716,742.000,741.000,746.000
845.806,736.000,744.000,747.000
852.890,738.000,735.000,746.000
859.968,730.000,727.000,721.000
867.040,749.000,735.000,740.000
874.106,738.000,737.000,745.000
881.168,737.000,728.000,727.000
888.226,727.000,742.000,734.000
895.276,735.000,744.000,725.000
902.321,727.000,739.000,726.000
909.360,735.000,735.000,726.000
916.393,717.000,735.000,727.000
923.422,734.000,729.000,739.000
930.444,734.000,723.000,727.000
937.461,731.000,751.000,730.000
944.475,743.000,737.000,727.000
951.481,745.000,721.000,739.000
958.482,733.000,726.000,734.000
965.476,740.000,734.000,726.000
972.466,734.000,734.000,727.000
979.451,729.000,742.000,725.000
986.428,740.000,741.000,721.000
993.402,727.000,739.000,745.000
1000.369,738.000,733.000,726.000
1007.333,730.000,748.000,740.000
1014.290,731.000,728.000,734.000
1021.241,735.000,737.000,735.000
1028.188,743.000,736.000,750.000
1035.128,750.000,742.000,762.000
1042.063,740.000,746.000,747.000
1048.994,741.000,739.000,747.000
1055.917,751.000,761.000,753.000
1062.838,801.000,790.000,818.000
1069.752,899.000,896.000,865.000
1076.660,791.000,792.000,805.000
1083.562,770.000,768.000,768.000
1090.460,756.000,759.000,760.000
1097.351,738.000,735.000,752.000
1104.238,744.000,751.000,740.000
1111.120,748.000,738.000,734.000
1117.995,743.000,752.000,748.000
1124.867,743.000,743.000,755.000
1131.733,754.000,742.000,739.000
1138.593,741.000,742.000,744.000
1145.447,755.000,759.000,745.000
1152.297,790.000,790.000,775.000
1159.141,859.000,840.000,856.000
1165.979,757.000,763.000,767.000
1172.813,750.000,738.000,744.000
1179.641,753.000,744.000,752.000
1186.465,738.000,727.000,748.000
1193.282,750.000,741.000,749.000
1200.095,745.000,754.000,756.000
1206.902,756.000,747.000,753.000
1213.703,774.000,773.000,768.000
1220.499,812.000,806.000,800.000
1227.291,874.000,866.000,882.000
1234.076,845.000,829.000,833.000
1240.858,781.000,783.000,791.000
1247.634,757.000,764.000,764.000
1254.405,754.000,758.000,741.000
1261.170,746.000,738.000,746.000
1267.929,750.000,746.000,743.000
1274.683,727.000,728.000,733.000
1281.433,751.000,727.000,740.000
1288.177,737.000,739.000,733.000
1294.916,728.000,736.000,729.000
1301.652,732.000,746.000,725.000
1308.380,732.000,743.000,735.000
1315.104,739.000,738.000,741.000
1321.822,744.000,734.000,741.000
1328.535,734.000,737.000,735.000
1335.243,736.000,729.000,739.000
1341.946,739.000,738.000,742.000
1348.643,726.000,749.000,738.000
1355.337,742.000,737.000,728.000
1362.025,734.000,753.000,735.000
1368.707,743.000,739.000,731.000
1375.384,735.000,749.000,748.000
1382.057,729.000,739.000,733.000
1388.723,743.000,742.000,740.000
1395.385,739.000,738.000,726.000
1402.042,745.000,734.000,752.000
1408.692,739.000,737.000,727.000
1415.341,745.000,745.000,728.000
1421.982,747.000,740.000,735.000
1428.619,739.000,742.000,735.000
1435.250,737.000,741.000,744.000
1441.877,740.000,745.000,747.000
1448.497,751.000,732.000,747.000
1455.114,729.000,746.000,741.000
1461.725,740.000,734.000,732.000
1468.331,760.000,747.000,755.000
1474.934,741.000,719.000,738.000
1481.530,757.000,745.000,731.000
1488.120,743.000,752.000,732.000
1494.707,742.000,735.000,753.000
1501.287,738.000,739.000,739.000
1507.863,751.000,753.000,747.000
1514.435,742.000,751.000,741.000
1521.001,744.000,739.000,738.000
1527.561,753.000,744.000,750.000
1534.118,760.000,753.000,745.000
1540.670,742.000,740.000,742.000
1547.216,742.000,740.000,747.000
1553.756,741.000,742.000,751.000
1560.293,732.000,738.000,764.000
1566.824,753.000,764.000,750.000
1573.350,740.000,735.000,752.000
1579.872,746.000,751.000,752.000
1586.390,744.000,747.000,750.000
1592.901,758.000,755.000,750.000
1599.408,762.000,763.000,741.000
1605.909,752.000,753.000,753.000
1612.405,746.000,751.000,749.000
1618.898,763.000,742.000,749.000
1625.384,756.000,748.000,758.000
1631.866,756.000,767.000,755.000
1638.345,768.000,749.000,747.000
1644.816,749.000,745.000,763.000
1651.285,750.000,737.000,753.000
1657.747,763.000,759.000,759.000
1664.204,738.000,752.000,739.000
1670.656,741.000,728.000,747.000
1677.104,761.000,762.000,751.000
1683.548,740.000,768.000,756.000
1689.986,749.000,741.000,764.000
1696.420,748.000,750.000,765.000
1702.848,746.000,745.000,755.000
1709.272,755.000,739.000,760.000
1715.691,755.000,766.000,755.000
1722.105,741.000,749.000,750.000
1728.514,761.000,753.000,761.000
1734.918,752.000,773.000,750.000
1741.318,751.000,747.000,754.000
1747.712,752.000,758.000,743.000
1754.104,755.000,764.000,766.000
1760.489,746.000,770.000,757.000
1766.870,758.000,754.000,756.000
1773.245,759.000,758.000,771.000
1779.616,750.000,760.000,749.000
1785.982,753.000,761.000,759.000
1792.343,772.000,764.000,748.000
1798.700,765.000,764.000,760.000
1805.052,766.000,763.000,760.000
1811.400,756.000,766.000,766.000
1816.157,774.000,759.000,759.000

File: 2025_09_09_Qtz_50X_532nm_74mW_Andor750_600gv_1030wn_3accum_10s_Pol_Pos2.csv
23.130,1216.000,1194.000,1188.000
30.879,863.000,881.000,882.000
38.619,859.000,820.000,841.000
46.355,916.000,920.000,917.000
54.083,839.000,840.000,855.000
61.807,839.000,825.000,837.000
69.523,936.000,922.000,947.000
77.233,845.000,831.000,847.000
84.936,868.000,872.000,868.000
92.632,878.000,882.000,876.000
100.323,885.000,875.000,883.000
108.007,842.000,856.000,874.000
115.685,929.000,932.000,930.000
123.359,1042.000,1031.000,1010.000
131.024,2174.000,2187.000,2123.000
138.683,3602.000,3579.000,3668.000
146.335,1340.000,1339.000,1336.000
153.982,1389.000,1311.000,1313.000
161.621,1193.000,1180.000,1191.000
169.256,1155.000,1172.000,1154.000
176.883,1352.000,1317.000,1330.000
184.504,1580.000,1564.000,1549.000
192.122,2138.000,2156.000,2178.000
199.731,3533.000,3579.000,3524.000
207.333,5937.000,5952.000,5958.000
214.929,7047.000,6923.000,7120.000
222.519,4951.000,4870.000,4949.000
230.104,2962.000,2974.000,2997.000
237.681,2099.000,2071.000,2062.000
245.253,1637.000,1618.000,1665.000
252.819,1384.000,1424.000,1401.000
260.380,1268.000,1296.000,1284.000
267.933,1833.000,1844.000,1851.000
275.480,1166.000,1160.000,1157.000
283.021,950.000,930.000,952.000
290.556,880.000,896.000,887.000
298.084,835.000,852.000,828.000
305.607,823.000,832.000,833.000
313.123,835.000,811.000,816.000
320.635,830.000,814.000,809.000
328.139,802.000,813.000,813.000
335.638,817.000,800.000,815.000
343.130,784.000,789.000,796.000
350.616,789.000,800.000,789.000
358.095,976.000,958.000,963.000
365.569,899.000,890.000,888.000
373.037,847.000,843.000,850.000
380.498,834.000,850.000,839.000
387.956,827.000,850.000,834.000
395.405,1018.000,991.000,1014.000
402.849,892.000,897.000,908.000
410.287,845.000,866.000,856.000
417.719,875.000,891.000,879.000
425.144,922.000,922.000,940.000
432.563,984.000,970.000,975.000
439.977,1126.000,1139.000,1099.000
447.386,1580.000,1607.000,1539.000
454.788,3678.000,3707.000,3721.000
462.183,8712.000,8811.000,8685.000
469.574,27692.000,27473.000,27885.000
476.957,6458.000,6386.000,6368.000
484.335,2835.000,2863.000,2874.000
491.706,1926.000,1929.000,1928.000
499.072,1550.000,1489.000,1475.000
506.432,1272.000,1320.000,1293.000
513.788,1154.000,1187.000,1156.000
521.136,1108.000,1095.000,1089.000
528.479,1048.000,1045.000,1028.000
535.815,1014.000,1020.000,1013.000
543.145,983.000,943.000,956.000
550.469,953.000,950.000,969.000
557.788,923.000,905.000,886.000
565.100,906.000,913.000,883.000
572.408,892.000,885.000,887.000
579.711,859.000,865.000,871.000
587.006,871.000,878.000,880.000
594.295,893.000,906.000,868.000
601.579,852.000,874.000,866.000
608.856,859.000,858.000,861.000
616.129,819.000,850.000,829.000
623.394,820.000,836.000,830.000
630.655,823.000,823.000,821.000
637.911,825.000,827.000,814.000
645.160,818.000,812.000,839.000
652.403,821.000,800.000,815.000
659.640,800.000,793.000,791.000
666.872,785.000,803.000,803.000
674.097,805.000,803.000,788.000
681.317,817.000,810.000,825.000
688.531,829.000,857.000,842.000
695.739,981.000,1007.000,988.000
702.944,852.000,850.000,855.000
710.141,786.000,792.000,805.000
717.332,794.000,792.000,797.000
724.517,784.000,796.000,782.000
731.697,786.000,795.000,780.000
738.871,780.000,786.000,796.000
746.039,798.000,786.000,775.000
753.202,788.000,786.000,796.000
760.360,794.000,795.000,776.000
767.512,805.000,794.000,781.000
774.657,818.000,826.000,827.000
781.797,828.000,834.000,832.000
788.932,921.000,909.000,921.000
796.060,1282.000,1300.000,1258.000
803.184,1077.000,1041.000,1036.000
810.301,951.000,945.000,940.000
817.413,859.000,848.000,836.000
824.520,821.000,839.000,829.000
831.622,818.000,832.000,830.000
838.716,816.000,824.000,817.000
845.806,830.000,817.000,828.000
852.890,836.000,832.000,821.000
859.968,811.000,808.000,803.000
867.040,810.000,790.000,805.000
874.106,803.000,800.000,803.000
881.168,817.000,808.000,782.000
888.226,827.000,825.000,819.000
895.276,821.000,832.000,821.000
902.321,810.000,799.000,811.000
909.360,811.000,800.000,797.000
916.393,819.000,810.000,795.000
923.422,818.000,803.000,816.000
930.444,800.000,789.000,810.000
937.461,799.000,801.000,799.000
944.475,798.000,790.000,798.000
951.481,792.000,781.000,795.000
958.482,804.000,786.000,787.000
965.476,791.000,781.000,784.000
972.466,785.000,761.000,772.000
979.451,764.000,782.000,777.000
986.428,785.000,780.000,765.000
993.402,783.000,774.000,780.000
1000.369,762.000,785.000,783.000
1007.333,770.000,764.000,769.000
1014.290,790.000,791.000,767.000
1021.241,792.000,791.000,776.000
1028.188,779.000,783.000,776.000
1035.128,786.000,780.000,791.000
1042.063,808.000,801.000,811.000
1048.994,802.000,809.000,804.000
1055.917,853.000,854.000,856.000
1062.838,1045.000,1035.000,1038.000
1069.752,948.000,953.000,942.000
1076.660,966.000,986.000,971.000
1083.562,945.000,930.000,947.000
1090.460,853.000,843.000,832.000
1097.351,818.000,823.000,809.000
1104.238,824.000,838.000,815.000
1111.120,827.000,808.000,812.000
1117.995,817.000,803.000,799.000
1124.867,813.000,799.000,802.000
1131.733,783.000,787.000,793.000
1138.593,805.000,799.000,814.000
1145.447,803.000,818.000,808.000
1152.297,888.000,877.000,911.000
1159.141,1116.000,1088.000,1096.000
1165.979,849.000,834.000,859.000
1172.813,803.000,804.000,782.000
1179.641,789.000,792.000,796.000
1186.465,776.000,772.000,785.000
1193.282,775.000,770.000,777.000
1200.095,767.000,771.000,775.000
1206.902,782.000,779.000,786.000
1213.703,770.000,769.000,794.000
1220.499,791.000,792.000,780.000
1227.291,811.000,821.000,802.000
1234.076,811.000,802.000,788.000
1240.858,783.000,797.000,775.000
1247.634,797.000,781.000,798.000
1254.405,767.000,771.000,767.000
1261.170,767.000,778.000,774.000
1267.929,769.000,773.000,768.000
1274.683,779.000,767.000,775.000
1281.433,739.000,759.000,782.000
1288.177,743.000,766.000,770.000
1294.916,757.000,759.000,751.000
1301.652,764.000,764.000,739.000
1308.380,753.000,750.000,756.000
1315.104,760.000,749.000,744.000
1321.822,761.000,750.000,763.000
1328.535,756.000,761.000,758.000
1335.243,765.000,760.000,768.000
1341.946,750.000,767.000,750.000
1348.643,753.000,758.000,741.000
1355.337,762.000,756.000,761.000
1362.025,753.000,760.000,765.000
1368.707,749.000,754.000,759.000
1375.384,750.000,759.000,755.000
1382.057,761.000,747.000,764.000
1388.723,749.000,748.000,744.000
1395.385,770.000,761.000,750.000
1402.042,762.000,767.000,767.000
1408.692,759.000,756.000,767.000
1415.341,767.000,739.000,755.000
1421.982,766.000,756.000,763.000
1428.619,758.000,772.000,749.000
1435.250,759.000,767.000,764.000
1441.877,762.000,757.000,762.000
1448.497,769.000,765.000,757.000
1455.114,767.000,765.000,772.000
1461.725,763.000,753.000,763.000
1468.331,763.000,774.000,753.000
1474.934,767.000,765.000,764.000
1481.530,767.000,769.000,755.000
1488.120,752.000,779.000,764.000
1494.707,761.000,765.000,757.000
1501.287,761.000,762.000,778.000
1507.863,773.000,780.000,763.000
1514.435,765.000,760.000,767.000
1521.001,769.000,763.000,770.000
1527.561,759.000,778.000,771.000
1534.118,773.000,766.000,779.000
1540.670,757.000,767.000,771.000
1547.216,769.000,770.000,779.000
1553.756,781.000,776.000,781.000
1560.293,781.000,771.000,776.000
1566.824,778.000,772.000,793.000
1573.350,765.000,788.000,773.000
1579.872,793.000,792.000,794.000
1586.390,777.000,770.000,783.000
1592.901,779.000,789.000,780.000
1599.408,777.000,778.000,782.000
1605.909,789.000,784.000,767.000
1612.405,788.000,773.000,788.000
1618.898,782.000,775.000,782.000
1625.384,783.000,771.000,789.000
1631.866,780.000,781.000,785.000
1638.345,790.000,774.000,787.000
1644.816,785.000,783.000,770.000
1651.285,767.000,771.000,773.000
1657.747,771.000,779.000,785.000
1664.204,777.000,780.000,763.000
1670.656,783.000,783.000,784.000
1677.104,784.000,784.000,780.000
1683.548,773.000,773.000,757.000
1689.986,775.000,771.000,778.000
1696.420,772.000,760.000,778.000
1702.848,778.000,780.000,776.000
1709.272,775.000,759.000,770.000
1715.691,786.000,782.000,767.000
1722.105,777.000,767.000,761.000
1728.514,782.000,772.000,771.000
1734.918,775.000,762.000,756.000
1741.318,778.000,782.000,763.000
1747.712,771.000,774.000,772.000
1754.104,768.000,784.000,770.000
1760.489,782.000,780.000,772.000
1766.870,773.000,786.000,789.000
1773.245,778.000,793.000,780.000
1779.616,773.000,770.000,772.000
1785.982,777.000,791.000,783.000
1792.343,798.000,763.000,776.000
1798.700,784.000,756.000,775.000
1805.052,777.000,781.000,775.000
1811.400,785.000,760.000,770.000
1816.157,786.000,782.000,801.000

File: 2025_09_09_Qtz_50X_532nm_74mW_Andor750_600gv_1030wn_3accum_10s_UnPol_Pos2.csv
23.130,1375.000,1394.000,1414.000
30.879,975.000,973.000,981.000
38.619,968.000,957.000,971.000
46.355,1085.000,1092.000,1083.000
54.083,1008.000,1023.000,1003.000
61.807,940.000,972.000,964.000
69.523,1168.000,1141.000,1183.000
77.233,960.000,965.000,996.000
84.936,1017.000,1050.000,1037.000
92.632,1051.000,1073.000,1047.000
100.323,1034.000,1028.000,1038.000
108.007,990.000,977.000,977.000
115.685,1138.000,1131.000,1135.000
123.359,1183.000,1240.000,1218.000
131.024,2690.000,2646.000,2601.000
138.683,5121.000,5088.000,5125.000
146.335,1672.000,1629.000,1646.000
153.982,1559.000,1579.000,1599.000
161.621,1413.000,1357.000,1413.000
169.256,1345.000,1383.000,1352.000
176.883,1547.000,1552.000,1525.000
184.504,1859.000,1915.000,1873.000
192.122,2665.000,2654.000,2676.000
199.731,4361.000,4336.000,4315.000
207.333,7470.000,7394.000,7327.000
214.929,8987.000,8878.000,8962.000
222.519,6164.000,6158.000,6206.000
230.104,3706.000,3627.000,3591.000
237.681,2496.000,2513.000,2544.000
245.253,1960.000,1905.000,1965.000
252.819,1642.000,1672.000,1692.000
260.380,1588.000,1571.000,1546.000
267.933,2873.000,2749.000,2782.000
275.480,1624.000,1617.000,1651.000
283.021,1121.000,1114.000,1113.000
290.556,1037.000,1011.000,1023.000
298.084,954.000,959.000,968.000
305.607,932.000,945.000,926.000
313.123,917.000,935.000,921.000
320.635,898.000,918.000,910.000
328.139,904.000,900.000,887.000
335.638,895.000,880.000,900.000
343.130,866.000,897.000,888.000
350.616,915.000,908.000,883.000
358.095,1206.000,1180.000,1168.000
365.569,1010.000,996.000,962.000
373.037,994.000,1005.000,994.000
380.498,963.000,933.000,959.000
387.956,913.000,934.000,928.000
395.405,1150.000,1168.000,1157.000
402.849,1047.000,1054.000,1048.000
410.287,989.000,964.000,979.000
417.719,1014.000,1011.000,977.000
425.144,1032.000,1054.000,1034.000
432.563,1115.000,1128.000,1143.000
439.977,1293.000,1311.000,1274.000
447.386,1823.000,1826.000,1845.000
454.788,4705.000,4691.000,4680.000
462.183,11081.000,10862.000,10715.000
469.574,35080.000,34883.000,35157.000
476.957,8463.000,8508.000,8531.000
484.335,3689.000,3620.000,3659.000
491.706,2383.000,2394.000,2354.000
499.072,1856.000,1815.000,1883.000
506.432,1533.000,1533.000,1524.000
513.788,1406.000,1339.000,1350.000
521.136,1286.000,1315.000,1274.000
528.479,1256.000,1263.000,1251.000
535.815,1230.000,1259.000,1279.000
543.145,1129.000,1146.000,1165.000
550.469,1117.000,1091.000,1135.000
557.788,1053.000,1047.000,1035.000
565.100,1005.000,1026.000,1034.000
572.408,997.000,997.000,995.000
579.711,998.000,1006.000,979.000
587.006,982.000,1004.000,1011.000
594.295,1012.000,994.000,1011.000
601.579,985.000,989.000,993.000
608.856,946.000,979.000,956.000
616.129,948.000,947.000,945.000
623.394,963.000,948.000,950.000
630.655,923.000,928.000,930.000
637.911,953.000,944.000,938.000
645.160,941.000,931.000,925.000
652.403,917.000,909.000,910.000
659.640,896.000,908.000,891.000
666.872,895.000,913.000,881.000
674.097,891.000,893.000,895.000
681.317,893.000,931.000,905.000
688.531,940.000,977.000,955.000
695.739,1206.000,1206.000,1179.000
702.944,987.000,1007.000,992.000
710.141,933.000,913.000,906.000
717.332,879.000,905.000,901.000
724.517,882.000,891.000,895.000
731.697,873.000,894.000,888.000
738.871,896.000,894.000,886.000
746.039,907.000,887.000,901.000
753.202,887.000,888.000,886.000
760.360,914.000,905.000,871.000
767.512,910.000,921.000,915.000
774.657,952.000,930.000,954.000
781.797,993.000,997.000,1006.000
788.932,1106.000,1125.000,1114.000
796.060,1645.000,1634.000,1632.000
803.184,1659.000,1675.000,1689.000
810.301,1453.000,1413.000,1427.000
817.413,1070.000,1039.000,1056.000
824.520,979.000,975.000,964.000
831.622,958.000,962.000,968.000
838.716,971.000,977.000,953.000
845.806,958.000,935.000,922.000
852.890,948.000,944.000,948.000
859.968,935.000,925.000,934.000
867.040,927.000,931.000,900.000
874.106,902.000,927.000,930.000
881.168,900.000,911.000,903.000
888.226,934.000,954.000,938.000
895.276,928.000,933.000,934.000
902.321,912.000,905.000,911.000
909.360,935.000,918.000,932.000
916.393,923.000,953.000,935.000
923.422,918.000,960.000,908.000
930.444,925.000,911.000,927.000
937.461,907.000,895.000,915.000
944.475,912.000,906.000,904.000
951.481,890.000,899.000,892.000
958.482,914.000,884.000,907.000
965.476,900.000,907.000,919.000
972.466,877.000,872.000,875.000
979.451,890.000,875.000,878.000
986.428,887.000,873.000,897.000
993.402,881.000,902.000,874.000
1000.369,875.000,892.000,884.000
1007.333,880.000,886.000,877.000
1014.290,879.000,875.000,886.000
1021.241,896.000,889.000,878.000
1028.188,903.000,889.000,917.000
1035.128,925.000,910.000,903.000
1042.063,919.000,935.000,915.000
1048.994,937.000,953.000,931.000
1055.917,1002.000,999.000,1027.000
1062.838,1309.000,1259.000,1310.000
1069.752,1245.000,1226.000,1261.000
1076.660,1183.000,1180.000,1204.000
1083.562,1148.000,1138.000,1149.000
1090.460,989.000,1018.000,967.000
1097.351,944.000,942.000,961.000
1104.238,959.000,942.000,952.000
1111.120,918.000,936.000,956.000
1117.995,923.000,946.000,915.000
1124.867,927.000,925.000,919.000
1131.733,925.000,912.000,921.000
1138.593,904.000,945.000,927.000
1145.447,961.000,952.000,964.000
1152.297,1085.000,1066.000,1081.000
1159.141,1443.000,1449.000,1472.000
1165.979,1030.000,1012.000,1021.000
1172.813,908.000,936.000,939.000
1179.641,895.000,901.000,911.000
1186.465,888.000,901.000,913.000
1193.282,883.000,905.000,888.000
1200.095,887.000,880.000,890.000
1206.902,912.000,886.000,908.000
1213.703,914.000,920.000,917.000
1220.499,985.000,964.000,959.000
1227.291,1101.000,1059.000,1103.000
1234.076,1017.000,1017.000,1023.000
1240.858,940.000,948.000,945.000
1247.634,917.000,906.000,899.000
1254.405,916.000,905.000,911.000
1261.170,891.000,899.000,881.000
1267.929,883.000,883.000,891.000
1274.683,885.000,876.000,879.000
1281.433,877.000,867.000,865.000
1288.177,869.000,866.000,879.000
1294.916,864.000,866.000,852.000
1301.652,860.000,843.000,859.000
1308.380,865.000,853.000,865.000
1315.104,859.000,874.000,852.000
1321.822,866.000,855.000,868.000
1328.535,867.000,846.000,844.000
1335.243,852.000,873.000,865.000
1341.946,855.000,854.000,845.000
1348.643,866.000,865.000,864.000
1355.337,859.000,860.000,850.000
1362.025,864.000,862.000,847.000
1368.707,852.000,870.000,854.000
1375.384,871.000,874.000,863.000
1382.057,863.000,854.000,868.000
1388.723,863.000,866.000,870.000
1395.385,848.000,863.000,859.000
1402.042,851.000,878.000,865.000
1408.692,857.000,868.000,862.000
1415.341,863.000,858.000,877.000
1421.982,872.000,869.000,882.000
1428.619,854.000,877.000,863.000
1435.250,891.000,873.000,871.000
1441.877,892.000,875.000,871.000
1448.497,874.000,869.000,877.000
1455.114,892.000,877.000,861.000
1461.725,878.000,861.000,884.000
1468.331,890.000,873.000,884.000
1474.934,881.000,873.000,877.000
1481.530,872.000,893.000,874.000
1488.120,882.000,856.000,888.000
1494.707,877.000,884.000,895.000
1501.287,891.000,887.000,891.000
1507.863,884.000,904.000,871.000
1514.435,895.000,887.000,877.000
1521.001,897.000,871.000,890.000
1527.561,875.000,867.000,895.000
1534.118,880.000,886.000,880.000
1540.670,888.000,877.000,858.000
1547.216,892.000,903.000,899.000
1553.756,894.000,910.000,897.000
1560.293,907.000,898.000,885.000
1566.824,900.000,892.000,882.000
1573.350,889.000,912.000,893.000
1579.872,923.000,893.000,912.000
1586.390,923.000,894.000,911.000
1592.901,892.000,904.000,922.000
1599.408,911.000,917.000,914.000
1605.909,910.000,922.000,921.000
1612.405,906.000,905.000,915.000
1618.898,908.000,912.000,916.000
1625.384,896.000,902.000,906.000
1631.866,910.000,915.000,891.000
1638.345,899.000,912.000,880.000
1644.816,897.000,909.000,907.000
1651.285,891.000,905.000,892.000
1657.747,899.000,891.000,905.000
1664.204,915.000,905.000,913.000
1670.656,882.000,902.000,891.000
1677.104,897.000,894.000,899.000
1683.548,901.000,905.000,881.000
1689.986,895.000,880.000,889.000
1696.420,889.000,897.000,893.000
1702.848,889.000,886.000,895.000
1709.272,895.000,899.000,890.000
1715.691,891.000,886.000,892.000
1722.105,893.000,891.000,873.000
1728.514,882.000,884.000,898.000
1734.918,893.000,904.000,869.000
1741.318,873.000,888.000,887.000
1747.712,894.000,898.000,895.000
1754.104,881.000,887.000,881.000
1760.489,888.000,887.000,887.000
1766.870,897.000,888.000,886.000
1773.245,882.000,910.000,897.000
1779.616,889.000,872.000,891.000
1785.982,912.000,900.000,903.000
1792.343,902.000,916.000,900.000
1798.700,897.000,901.000,900.000
1805.052,917.000,915.000,904.000
1811.400,891.000,903.000,916.000
1816.157,929.000,892.000,907.000