Folder: Data/Raman/Silica (part 39)

File: 2025_08_22_Glass_Slide_50X_532nm_74mW_Andor750_600gv_1030wn_3accum_10s_UnPol.csv
23.130,1963.000,1977.000,1987.000
30.879,1540.000,1557.000,1509.000
38.619,1753.000,1751.000,1766.000
46.355,1951.000,1999.000,2007.000
54.083,2854.000,2131.000,2131.000
61.807,2147.000,2205.000,2186.000
69.523,2336.000,2340.000,2360.000
77.233,2253.000,2252.000,2249.000
84.936,2276.000,2283.000,2332.000
92.632,2340.000,2290.000,2316.000
100.323,2281.000,2258.000,2295.000
108.007,2144.000,2172.000,2175.000
115.685,2222.000,2188.000,2232.000
123.359,2151.000,2175.000,2142.000
131.024,2105.000,2103.000,2100.000
138.683,2095.000,2147.000,2172.000
146.335,2079.000,2099.000,2073.000
153.982,2058.000,2010.000,2042.000
161.621,1996.000,2011.000,2031.000
169.256,2012.000,2006.000,2023.000
176.883,1956.000,1945.000,1993.000
184.504,1935.000,1937.000,1952.000
192.122,1992.000,1950.000,1984.000
199.731,1931.000,1926.000,1924.000
207.333,1923.000,1919.000,1909.000
214.929,1921.000,1938.000,1950.000
222.519,1895.000,1926.000,1930.000
230.104,1852.000,1863.000,1930.000
237.681,1924.000,1919.000,1914.000
245.253,1899.000,1883.000,1876.000
252.819,1874.000,1833.000,1897.000
260.380,1883.000,1968.000,1938.000
267.933,1919.000,1905.000,1898.000
275.480,1918.000,1918.000,1940.000
283.021,1930.000,1955.000,1956.000
290.556,1919.000,1920.000,1912.000
298.084,1960.000,1951.000,1970.000
305.607,1955.000,1969.000,1947.000
313.123,1979.000,1958.000,1975.000
320.635,1993.000,1981.000,1990.000
328.139,1941.000,2006.000,1982.000
335.638,1988.000,2023.000,2032.000
343.130,2007.000,1989.000,2006.000
350.616,2000.000,2005.000,2006.000
358.095,2064.000,2016.000,2010.000
365.569,2038.000,2020.000,2084.000
373.037,2035.000,2059.000,2048.000
380.498,2067.000,2071.000,2044.000
387.956,2080.000,2055.000,2063.000
395.405,2083.000,2063.000,2069.000
402.849,2057.000,2075.000,2038.000
410.287,2126.000,2091.000,2087.000
417.719,2103.000,2104.000,2110.000
425.144,2094.000,2084.000,2084.000
432.563,2092.000,2108.000,2107.000
439.977,2154.000,2118.000,2112.000
447.386,2135.000,2110.000,2130.000
454.788,2153.000,2200.000,2139.000
462.183,2144.000,2114.000,2117.000
469.574,2121.000,2176.000,2151.000
476.957,2121.000,2174.000,2124.000
484.335,2109.000,2092.000,2110.000
491.706,2097.000,2114.000,2104.000
499.072,2115.000,2104.000,2109.000
506.432,2066.000,2074.000,2093.000
513.788,2077.000,2060.000,2042.000
521.136,2090.000,2066.000,2075.000
528.479,2117.000,2114.000,2098.000
535.815,2142.000,2138.000,2165.000
543.145,2269.000,2256.000,2250.000
550.469,2348.000,2303.000,2297.000
557.788,2423.000,2398.000,2389.000
565.100,2339.000,2430.000,2447.000
572.408,2367.000,2410.000,2367.000
579.711,2374.000,2377.000,2349.000
587.006,2267.000,2280.000,2289.000
594.295,2267.000,2265.000,2266.000
601.579,2184.000,2200.000,2176.000
608.856,2093.000,2148.000,2119.000
616.129,2012.000,2099.000,2053.000
623.394,2056.000,2018.000,1969.000
630.655,1936.000,1949.000,1958.000
637.911,1916.000,1929.000,1927.000
645.160,1870.000,1878.000,1859.000
652.403,1791.000,1808.000,1815.000
659.640,1742.000,1735.000,1764.000
666.872,1697.000,1737.000,1711.000
674.097,1710.000,1631.000,1651.000
681.317,1640.000,1653.000,1658.000
688.531,1581.000,1618.000,1583.000
695.739,1540.000,1560.000,1568.000
702.944,1489.000,1483.000,1496.000
710.141,1486.000,1476.000,1438.000
717.332,1452.000,1443.000,1466.000
724.517,1419.000,1423.000,1438.000
731.697,1395.000,1438.000,1403.000
738.871,1416.000,1427.000,1431.000
746.039,1388.000,1440.000,1403.000
753.202,1389.000,1416.000,1424.000
760.360,1420.000,1409.000,1452.000
767.512,1441.000,1466.000,1438.000
774.657,1451.000,1461.000,1488.000
781.797,1460.000,1452.000,1473.000
788.932,1481.000,1458.000,1452.000
796.060,1488.000,1485.000,1446.000
803.184,1445.000,1434.000,1421.000
810.301,1382.000,1400.000,1408.000
817.413,1375.000,1383.000,1394.000
824.520,1351.000,1351.000,1342.000
831.622,1336.000,1305.000,1318.000
838.716,1299.000,1324.000,1283.000
845.806,1250.000,1279.000,1247.000
852.890,1288.000,1305.000,1268.000
859.968,1266.000,1257.000,1260.000
867.040,1246.000,1237.000,1272.000
874.106,1299.000,1312.000,1284.000
881.168,1281.000,1275.000,1286.000
888.226,1282.000,1284.000,1300.000
895.276,1300.000,1290.000,1322.000
902.321,1320.000,1316.000,1322.000
909.360,1363.000,1337.000,1343.000
916.393,1361.000,1387.000,1367.000
923.422,1409.000,1405.000,1405.000
930.444,1439.000,1444.000,1469.000
937.461,1489.000,1457.000,1456.000
944.475,1519.000,1538.000,1520.000
951.481,1524.000,1540.000,1502.000
958.482,1569.000,1566.000,1561.000
965.476,1594.000,1591.000,1559.000
972.466,1585.000,1541.000,1591.000
979.451,1671.000,1651.000,1644.000
986.428,1662.000,1675.000,1666.000
993.402,1698.000,1671.000,1678.000
1000.369,1677.000,1728.000,1692.000
1007.333,1675.000,1659.000,1691.000
1014.290,1735.000,1715.000,1724.000
1021.241,1766.000,1739.000,1791.000
1028.188,1806.000,1831.000,1812.000
1035.128,1900.000,1849.000,1869.000
1042.063,1972.000,1968.000,1939.000
1048.994,2003.000,2064.000,2015.000
1055.917,2136.000,2153.000,2145.000
1062.838,2156.000,2165.000,2212.000
1069.752,2298.000,2307.000,2352.000
1076.660,2348.000,2416.000,2343.000
1083.562,2471.000,2498.000,2422.000
1090.460,2586.000,2558.000,2545.000
1097.351,2552.000,2542.000,2553.000
1104.238,2550.000,2525.000,2547.000
1111.120,2452.000,2400.000,2422.000
1117.995,2311.000,2343.000,2335.000
1124.867,2150.000,2214.000,2205.000
1131.733,2074.000,2097.000,2100.000
1138.593,1985.000,2033.000,1956.000
1145.447,1890.000,1855.000,1883.000
1152.297,1812.000,1817.000,1796.000
1159.141,1716.000,1732.000,1725.000
1165.979,1680.000,1646.000,1625.000
1172.813,1619.000,1585.000,1594.000
1179.641,1547.000,1565.000,1508.000
1186.465,1497.000,1487.000,1485.000
1193.282,1442.000,1466.000,1470.000
1200.095,1402.000,1405.000,1396.000
1206.902,1349.000,1402.000,1360.000
1213.703,1375.000,1326.000,1352.000
1220.499,1340.000,1333.000,1341.000
1227.291,1337.000,1289.000,1307.000
1234.076,1285.000,1302.000,1286.000
1240.858,1282.000,1273.000,1261.000
1247.634,1280.000,1252.000,1295.000
1254.405,1279.000,1269.000,1291.000
1261.170,1298.000,1245.000,1266.000
1267.929,1279.000,1279.000,1261.000
1274.683,1260.000,1281.000,1277.000
1281.433,1264.000,1249.000,1255.000
1288.177,1256.000,1237.000,1249.000
1294.916,1244.000,1279.000,1251.000
1301.652,1278.000,1244.000,1262.000
1308.380,1247.000,1259.000,1270.000
1315.104,1279.000,1296.000,1229.000
1321.822,1242.000,1268.000,1271.000
1328.535,1296.000,1245.000,1229.000
1335.243,1253.000,1265.000,1272.000
1341.946,1273.000,1287.000,1275.000
1348.643,1257.000,1241.000,1232.000
1355.337,1240.000,1265.000,1262.000
1362.025,1268.000,1254.000,1249.000
1368.707,1259.000,1233.000,1258.000
1375.384,1232.000,1257.000,1276.000
1382.057,1261.000,1235.000,1279.000
1388.723,1244.000,1279.000,1257.000
1395.385,1248.000,1254.000,1225.000
1402.042,1249.000,1268.000,1274.000
1408.692,1273.000,1297.000,1248.000
1415.341,1247.000,1254.000,1239.000
1421.982,1261.000,1261.000,1272.000
1428.619,1267.000,1243.000,1255.000
1435.250,1258.000,1288.000,1270.000
1441.877,1240.000,1242.000,1239.000
1448.497,1246.000,1259.000,1242.000
1455.114,1269.000,1243.000,1260.000
1461.725,1253.000,1227.000,1275.000
1468.331,1276.000,1275.000,1258.000
1474.934,1266.000,1281.000,1253.000
1481.530,1288.000,1275.000,1287.000
1488.120,1249.000,1264.000,1279.000
1494.707,1271.000,1283.000,1270.000
1501.287,1300.000,1278.000,1274.000
1507.863,1273.000,1307.000,1260.000
1514.435,1271.000,1281.000,1270.000
1521.001,1277.000,1263.000,1265.000
1527.561,1278.000,1251.000,1276.000
1534.118,1272.000,1283.000,1287.000
1540.670,1264.000,1263.000,1249.000
1547.216,1282.000,1286.000,1287.000
1553.756,1248.000,1291.000,1286.000
1560.293,1285.000,1283.000,1279.000
1566.824,1280.000,1293.000,1262.000
1573.350,1265.000,1289.000,1279.000
1579.872,1275.000,1271.000,1261.000
1586.390,1283.000,1256.000,1234.000
1592.901,1289.000,1261.000,1266.000
1599.408,1271.000,1261.000,1282.000
1605.909,1280.000,1262.000,1262.000
1612.405,1274.000,1264.000,1284.000
1618.898,1310.000,1272.000,1281.000
1625.384,1268.000,1273.000,1283.000
1631.866,1277.000,1275.000,1274.000
1638.345,1255.000,1291.000,1274.000
1644.816,1253.000,1260.000,1290.000
1651.285,1255.000,1274.000,1279.000
1657.747,1281.000,1276.000,1283.000
1664.204,1258.000,1259.000,1278.000
1670.656,1289.000,1253.000,1260.000
1677.104,1280.000,1292.000,1267.000
1683.548,1269.000,1279.000,1270.000
1689.986,1265.000,1303.000,1235.000
1696.420,1266.000,1251.000,1262.000
1702.848,1235.000,1265.000,1250.000
1709.272,1279.000,1280.000,1286.000
1715.691,1266.000,1285.000,1304.000
1722.105,1286.000,1286.000,1274.000
1728.514,1260.000,1245.000,1290.000
1734.918,1275.000,1254.000,1243.000
1741.318,1265.000,1287.000,1285.000
1747.712,1267.000,1282.000,1279.000
1754.104,1282.000,1279.000,1235.000
1760.489,1268.000,1259.000,1276.000
1766.870,1287.000,1260.000,1257.000
1773.245,1254.000,1243.000,1261.000
1779.616,1230.000,1261.000,1248.000
1785.982,1266.000,1264.000,1243.000
1792.343,1254.000,1266.000,1267.000
1798.700,1237.000,1272.000,1283.000
1805.052,1263.000,1267.000,1279.000
1811.400,1270.000,1254.000,1255.000
1816.157,1264.000,1263.000,1297.000

File: 2025_08_22_Glass_Slide_50X_532nm_74mW_Andor750_600gv_4000wn_3accum_5s_UnPol2.csv
3314.254,1445.000,1447.000,1422.000
3319.475,1456.000,1466.000,1469.000
3324.692,1491.000,1461.000,1458.000
3329.906,1460.000,1471.000,1446.000
3335.116,1498.000,1525.000,1490.000
3340.323,1486.000,1515.000,1505.000
3345.526,1486.000,1483.000,1483.000
3350.726,1525.000,1521.000,1516.000
3355.921,1524.000,1533.000,1470.000
3361.115,1516.000,1543.000,1508.000
3366.305,1523.000,1553.000,1515.000
3371.490,1566.000,1500.000,1505.000
3376.673,1544.000,1536.000,1557.000
3381.851,1532.000,1523.000,1528.000
3387.028,1532.000,1522.000,1544.000
3392.198,1577.000,1574.000,1577.000
3397.368,1553.000,1566.000,1542.000
3402.532,1582.000,1536.000,1545.000
3407.694,1522.000,1529.000,1566.000
3412.852,1575.000,1578.000,1536.000
3418.006,1587.000,1546.000,1520.000
3423.158,1566.000,1560.000,1580.000
3428.305,1539.000,1576.000,1579.000
3433.449,1583.000,1583.000,1563.000
3438.590,1556.000,1575.000,1588.000
3443.728,1560.000,1582.000,1588.000
3448.860,1585.000,1603.000,1582.000
3453.992,1587.000,1576.000,1598.000
3459.120,1580.000,1603.000,1559.000
3464.242,1601.000,1593.000,1590.000
3469.364,1578.000,1614.000,1574.000
3474.480,1616.000,1600.000,1639.000
3479.593,1583.000,1576.000,1634.000
3484.702,1592.000,1566.000,1633.000
3489.810,1616.000,1608.000,1640.000
3494.912,1630.000,1607.000,1647.000
3500.012,1642.000,1622.000,1604.000
3505.110,1647.000,1617.000,1637.000
3510.202,1613.000,1609.000,1601.000
3515.292,1661.000,1644.000,1645.000
3520.378,1637.000,1669.000,1659.000
3525.461,1648.000,1639.000,1658.000
3530.540,1659.000,1688.000,1667.000
3535.617,1660.000,1683.000,1601.000
3540.688,1656.000,1679.000,1663.000
3545.758,1651.000,1647.000,1676.000
3550.825,1654.000,1663.000,1654.000
3555.887,1674.000,1684.000,1645.000
3560.946,1677.000,1676.000,1654.000
3566.001,1726.000,1686.000,1670.000
3571.055,1713.000,1699.000,1690.000
3576.102,1721.000,1672.000,1707.000
3581.149,1695.000,1671.000,1684.000
3586.191,1725.000,1693.000,1726.000
3591.231,1715.000,1690.000,1711.000
3596.267,1692.000,1727.000,1715.000
3601.298,1721.000,1723.000,1738.000
3606.329,1739.000,1758.000,1716.000
3611.353,1749.000,1759.000,1713.000
3616.376,1748.000,1778.000,1725.000
3621.395,1754.000,1763.000,1774.000
3626.411,1760.000,1785.000,1759.000
3631.423,1766.000,1734.000,1772.000
3636.434,1773.000,1784.000,1782.000
3641.439,1821.000,1760.000,1783.000
3646.442,1769.000,1757.000,1767.000
3651.441,1787.000,1769.000,1810.000
3656.436,1810.000,1799.000,1831.000
3661.430,1832.000,1786.000,1784.000
3666.419,1757.000,1825.000,1786.000
3671.405,1804.000,1778.000,1821.000
3676.387,1841.000,1799.000,1794.000
3681.367,1809.000,1835.000,1796.000
3686.344,1823.000,1844.000,1798.000
3691.316,1842.000,1829.000,1844.000
3696.287,1804.000,1808.000,1815.000
3701.252,1822.000,1858.000,1822.000
3706.216,1875.000,1809.000,1847.000
3711.176,1862.000,1857.000,1869.000
3716.133,1850.000,1880.000,1845.000
3721.086,1831.000,1843.000,1819.000
3726.036,1879.000,1852.000,1876.000
3730.984,1845.000,1891.000,1854.000
3735.927,1882.000,1885.000,1900.000
3740.867,1881.000,1866.000,1858.000
3745.803,1861.000,1877.000,1857.000
3750.738,1908.000,1894.000,1874.000
3755.668,1925.000,1911.000,1915.000
3760.596,1907.000,1926.000,1814.000
3765.522,1877.000,1895.000,1864.000
3770.442,1910.000,1865.000,1915.000
3775.360,1889.000,1873.000,1915.000
3780.274,1920.000,1925.000,1892.000
3785.186,1906.000,1902.000,1917.000
3790.094,1874.000,1886.000,1910.000
3794.998,1908.000,1949.000,1904.000
3799.899,1932.000,1891.000,1887.000
3804.799,1878.000,1919.000,1888.000
3809.694,1924.000,1951.000,1946.000
3814.586,1883.000,1910.000,1888.000
3819.476,1887.000,1911.000,1887.000
3824.360,1931.000,1927.000,1919.000
3829.244,1941.000,1954.000,1916.000
3834.123,1967.000,1939.000,1954.000
3839.000,1955.000,1931.000,1935.000
3843.872,1942.000,1932.000,1945.000
3848.742,1950.000,1966.000,1946.000
3853.610,1935.000,1924.000,1963.000
3858.472,1968.000,1985.000,1953.000
3863.333,1926.000,1977.000,1914.000
3868.190,1968.000,1947.000,1990.000
3873.044,1919.000,2010.000,1979.000
3877.894,1946.000,1963.000,1987.000
3882.743,1956.000,1939.000,1952.000
3887.587,1980.000,1977.000,1973.000
3892.428,1999.000,1982.000,1945.000
3897.268,1955.000,2029.000,1984.000
3902.101,1955.000,1960.000,1974.000
3906.934,2022.000,1982.000,1980.000
3911.763,2020.000,1996.000,1974.000
3916.589,1985.000,1996.000,1990.000
3921.411,2014.000,2040.000,2002.000
3926.231,1996.000,2035.000,2023.000
3931.047,2001.000,2006.000,2027.000
3935.861,1977.000,2014.000,2060.000
3940.671,2076.000,2031.000,2008.000
3945.478,2000.000,2036.000,2016.000
3950.282,2048.000,1989.000,2034.000
3955.082,2031.000,2055.000,2026.000
3959.881,2063.000,2003.000,2017.000
3964.673,2034.000,2028.000,2072.000
3969.466,2025.000,2031.000,2035.000
3974.253,2098.000,2030.000,2056.000
3979.039,2072.000,2054.000,2031.000
3983.823,2073.000,2111.000,2056.000
3988.600,2093.000,2095.000,2070.000
3993.378,2081.000,2062.000,2064.000
3998.150,2072.000,2111.000,2079.000
4002.921,2079.000,2052.000,2075.000
4007.687,2087.000,2091.000,2070.000
4012.450,2087.000,2111.000,2057.000
4017.211,2125.000,2058.000,2104.000
4021.968,2134.000,2145.000,2081.000
4026.724,2098.000,2102.000,2104.000
4031.475,2089.000,2118.000,2131.000
4036.224,2125.000,2123.000,2133.000
4040.969,2147.000,2110.000,2124.000
4045.711,2138.000,2113.000,2132.000
4050.449,2103.000,2084.000,2175.000
4055.186,2131.000,2160.000,2119.000
4059.920,2100.000,2135.000,2139.000
4064.650,2111.000,2151.000,2136.000
4069.377,2162.000,2129.000,2137.000
4074.102,2149.000,2148.000,2165.000
4078.823,2131.000,2162.000,2132.000
4083.541,2087.000,2159.000,2149.000
4088.255,2126.000,2159.000,2126.000
4092.967,2098.000,2097.000,2136.000
4097.677,2184.000,2205.000,2122.000
4102.382,2155.000,2143.000,2142.000
4107.086,2198.000,2175.000,2147.000
4111.786,2161.000,2149.000,2175.000
4116.483,2152.000,2185.000,2161.000
4121.176,2185.000,2190.000,2213.000
4125.867,2191.000,2158.000,2132.000
4130.556,2163.000,2180.000,2187.000
4135.239,2171.000,2206.000,2236.000
4139.923,2174.000,2175.000,2185.000
4144.600,2202.000,2141.000,2188.000
4149.277,2225.000,2168.000,2178.000
4153.951,2156.000,2240.000,2212.000
4158.620,2164.000,2149.000,2152.000
4163.287,2183.000,2202.000,2190.000
4167.951,2202.000,2177.000,2187.000
4172.612,2222.000,2174.000,2241.000
4177.270,2217.000,2199.000,2263.000
4181.925,2202.000,2174.000,2199.000
4186.577,2166.000,2182.000,2233.000
4191.227,2205.000,2195.000,2262.000
4195.874,2200.000,2227.000,2179.000
4200.516,2222.000,2244.000,2200.000
4205.157,2217.000,2183.000,2240.000
4209.794,2221.000,2243.000,2231.000
4214.429,2224.000,2235.000,2182.000
4219.060,2229.000,2205.000,2237.000
4223.689,2228.000,2219.000,2230.000
4228.313,2241.000,2226.000,2238.000
4232.937,2279.000,2269.000,2203.000
4237.558,2225.000,2247.000,2255.000
4242.174,2251.000,2227.000,2236.000
4246.789,2252.000,2229.000,2281.000
4251.399,2176.000,2252.000,2238.000
4256.007,2256.000,2234.000,2252.000
4260.612,2256.000,2239.000,2275.000
4265.215,2246.000,2254.000,2283.000
4269.813,2271.000,2278.000,2194.000
4274.410,2272.000,2211.000,2241.000
4279.004,2218.000,2229.000,2207.000
4283.594,2250.000,2212.000,2239.000
4288.182,2287.000,2229.000,2246.000
4292.767,2309.000,2282.000,2223.000
4297.349,2254.000,2234.000,2248.000
4301.928,2229.000,2259.000,2297.000
4306.504,2300.000,2282.000,2230.000
4311.077,2286.000,2259.000,2237.000
4315.647,2278.000,2246.000,2260.000
4320.215,2241.000,2254.000,2273.000
4324.779,2244.000,2239.000,2316.000
4329.341,2288.000,2262.000,2239.000
4333.900,2320.000,2247.000,2289.000
4338.456,2275.000,2224.000,2273.000
4343.008,2272.000,2307.000,2255.000
4347.559,2329.000,2283.000,2270.000
4352.106,2285.000,2263.000,2300.000
4356.651,2256.000,2244.000,2276.000
4361.193,2260.000,2265.000,2268.000
4365.731,2289.000,2268.000,2280.000
4370.268,2270.000,2220.000,2276.000
4374.800,2236.000,2264.000,2311.000
4379.331,2297.000,2276.000,2261.000
4383.857,2280.000,2230.000,2259.000
4388.382,2239.000,2291.000,2269.000
4392.904,2308.000,2245.000,2306.000
4397.423,2240.000,2259.000,2250.000
4401.940,2313.000,2287.000,2262.000
4406.452,2311.000,2237.000,2231.000
4410.963,2292.000,2259.000,2261.000
4415.470,2262.000,2262.000,2290.000
4419.975,2271.000,2278.000,2255.000
4424.477,2313.000,2293.000,2293.000
4428.976,2254.000,2291.000,2214.000
4433.472,2259.000,2285.000,2260.000
4437.966,2236.000,2282.000,2234.000
4442.457,2316.000,2245.000,2222.000
4446.944,2310.000,2241.000,2262.000
4451.429,2235.000,2303.000,2271.000
4455.911,2293.000,2289.000,2266.000
4460.391,2250.000,2296.000,2303.000
4464.867,2267.000,2244.000,2245.000
4469.341,2287.000,2303.000,2313.000
4473.811,2289.000,2257.000,2271.000
4478.280,2258.000,2337.000,2264.000
4482.746,2238.000,2268.000,2264.000
4487.208,2244.000,2243.000,2222.000
4491.669,2262.000,2175.000,2244.000
4496.126,2271.000,2222.000,2268.000
4500.580,2246.000,2288.000,2231.000
4505.032,2298.000,2263.000,2221.000
4509.481,2258.000,2248.000,2292.000
4513.926,2266.000,2204.000,2244.000
4518.369,2200.000,2229.000,2228.000
4522.810,2206.000,2235.000,2245.000
4527.248,2183.000,2205.000,2199.000
4531.684,2232.000,2208.000,2221.000
4536.114,2219.000,2187.000,2229.000
4540.545,2214.000,2231.000,2261.000
4543.865,2226.000,2216.000,2212.000