Folder: Data/Raman/Silica (part 53)

File: 2025_08_22_Nat_SiO2_Glass_XRD_50X_532nm_12mW_Andor750_600gv_3400wn_3accum_30s_UnPol_Pos7.csv
2654.492,917.000,931.000,919.000
2660.180,961.000,946.000,962.000
2665.866,951.000,949.000,944.000
2671.545,952.000,958.000,958.000
2677.221,961.000,963.000,948.000
2682.894,972.000,953.000,968.000
2688.562,954.000,937.000,968.000
2694.227,931.000,950.000,961.000
2699.886,946.000,953.000,954.000
2705.543,964.000,947.000,966.000
2711.196,947.000,965.000,958.000
2716.844,961.000,966.000,966.000
2722.488,956.000,960.000,962.000
2728.129,951.000,934.000,938.000
2733.765,960.000,947.000,951.000
2739.399,951.000,960.000,959.000
2745.027,958.000,955.000,951.000
2750.650,965.000,931.000,951.000
2756.272,972.000,945.000,949.000
2761.889,957.000,949.000,967.000
2767.503,941.000,955.000,958.000
2773.111,968.000,939.000,963.000
2778.716,943.000,959.000,938.000
2784.316,952.000,962.000,937.000
2789.915,937.000,954.000,940.000
2795.507,945.000,958.000,955.000
2801.098,958.000,966.000,958.000
2806.682,966.000,939.000,982.000
2812.264,954.000,973.000,956.000
2817.842,949.000,967.000,967.000
2823.416,965.000,971.000,957.000
2828.986,966.000,994.000,973.000
2834.551,960.000,945.000,961.000
2840.113,975.000,969.000,966.000
2845.672,972.000,962.000,966.000
2851.227,964.000,977.000,976.000
2856.776,995.000,975.000,981.000
2862.323,998.000,978.000,960.000
2867.867,982.000,992.000,991.000
2873.406,973.000,974.000,974.000
2878.941,963.000,983.000,974.000
2884.471,960.000,967.000,966.000
2889.998,969.000,980.000,991.000
2895.522,972.000,966.000,989.000
2901.043,983.000,976.000,967.000
2906.558,970.000,960.000,955.000
2912.069,975.000,980.000,993.000
2917.578,993.000,971.000,961.000
2923.083,978.000,972.000,970.000
2928.584,979.000,963.000,963.000
2934.081,964.000,938.000,991.000
2939.573,971.000,988.000,963.000
2945.063,990.000,972.000,975.000
2950.548,978.000,1006.000,962.000
2956.030,985.000,977.000,980.000
2961.509,977.000,963.000,974.000
2966.981,967.000,975.000,992.000
2972.452,960.000,986.000,971.000
2977.919,989.000,960.000,969.000
2983.382,985.000,997.000,955.000
2988.840,956.000,979.000,962.000
2994.295,977.000,989.000,986.000
2999.746,972.000,971.000,981.000
3005.195,969.000,976.000,994.000
3010.638,988.000,985.000,975.000
3016.077,981.000,988.000,973.000
3021.514,976.000,975.000,973.000
3026.947,985.000,989.000,992.000
3032.377,992.000,983.000,1011.000
3037.801,1009.000,983.000,1008.000
3043.222,984.000,982.000,990.000
3048.640,988.000,989.000,982.000
3054.054,986.000,980.000,997.000
3059.465,996.000,983.000,1002.000
3064.872,972.000,971.000,991.000
3070.273,989.000,1002.000,986.000
3075.673,984.000,1002.000,983.000
3081.068,1005.000,994.000,998.000
3086.461,985.000,976.000,986.000
3091.847,976.000,995.000,984.000
3097.231,977.000,984.000,1000.000
3102.613,990.000,986.000,967.000
3107.991,1012.000,981.000,973.000
3113.363,993.000,990.000,976.000
3118.732,1001.000,993.000,981.000
3124.098,986.000,982.000,987.000
3129.461,1014.000,974.000,979.000
3134.820,973.000,981.000,981.000
3140.175,988.000,1003.000,1000.000
3145.525,978.000,993.000,984.000
3150.873,985.000,982.000,1003.000
3156.217,979.000,982.000,995.000
3161.558,994.000,1005.000,999.000
3166.894,989.000,1003.000,978.000
3172.226,994.000,1005.000,986.000
3177.556,962.000,988.000,985.000
3182.882,1001.000,989.000,999.000
3188.204,984.000,1003.000,986.000
3193.522,987.000,1013.000,981.000
3198.836,988.000,978.000,995.000
3204.148,1002.000,986.000,957.000
3209.456,978.000,991.000,959.000
3214.761,1001.000,977.000,988.000
3220.060,981.000,1005.000,1001.000
3225.357,983.000,976.000,979.000
3230.650,978.000,981.000,986.000
3235.940,973.000,964.000,1001.000
3241.227,987.000,1019.000,980.000
3246.507,998.000,966.000,987.000
3251.787,984.000,984.000,991.000
3257.063,988.000,987.000,987.000
3262.334,995.000,991.000,1004.000
3267.603,994.000,1001.000,1013.000
3272.866,990.000,1004.000,1015.000
3278.127,1010.000,993.000,1015.000
3283.385,991.000,992.000,984.000
3288.639,1005.000,999.000,1003.000
3293.890,1011.000,1004.000,1004.000
3299.135,1004.000,1007.000,989.000
3304.379,1010.000,1029.000,995.000
3309.618,997.000,988.000,998.000
3314.855,1002.000,1006.000,1005.000
3320.087,983.000,1003.000,1003.000
3325.316,983.000,983.000,987.000
3330.542,995.000,1001.000,1005.000
3335.763,1012.000,1015.000,996.000
3340.982,997.000,983.000,1009.000
3346.196,997.000,1010.000,1003.000
3351.408,1004.000,1009.000,1011.000
3356.615,1014.000,998.000,993.000
3361.820,1016.000,1015.000,1003.000
3367.022,1001.000,995.000,997.000
3372.217,1008.000,979.000,996.000
3377.412,1010.000,992.000,996.000
3382.603,1004.000,1003.000,1000.000
3387.789,1009.000,1005.000,1007.000
3392.973,1007.000,992.000,1006.000
3398.152,1023.000,1012.000,985.000
3403.328,997.000,998.000,991.000
3408.502,1006.000,1006.000,990.000
3413.672,982.000,1003.000,1029.000
3418.838,1013.000,1018.000,996.000
3423.999,997.000,979.000,1016.000
3429.158,1006.000,995.000,1005.000
3434.314,990.000,979.000,996.000
3439.467,1002.000,981.000,979.000
3444.614,1006.000,995.000,995.000
3449.759,973.000,980.000,995.000
3454.901,982.000,1008.000,995.000
3460.040,964.000,999.000,995.000
3465.175,1018.000,1006.000,1005.000
3470.305,1023.000,995.000,975.000
3475.433,994.000,983.000,1003.000
3480.559,992.000,1000.000,977.000
3485.680,1005.000,994.000,997.000
3490.798,994.000,1006.000,1017.000
3495.911,1008.000,974.000,994.000
3501.023,1013.000,994.000,1009.000
3506.130,1002.000,985.000,1006.000
3511.235,993.000,991.000,999.000
3516.336,1001.000,1009.000,998.000
3521.431,1011.000,973.000,995.000
3526.526,953.000,973.000,999.000
3531.617,991.000,1011.000,981.000
3536.704,1026.000,1000.000,990.000
3541.787,985.000,960.000,982.000
3546.867,983.000,988.000,1002.000
3551.944,1000.000,996.000,984.000
3557.017,1009.000,993.000,958.000
3562.088,1008.000,990.000,976.000
3567.154,995.000,981.000,987.000
3572.218,987.000,987.000,1005.000
3577.278,994.000,1004.000,1008.000
3582.335,996.000,1000.000,991.000
3587.389,987.000,1005.000,1015.000
3592.437,1008.000,994.000,987.000
3597.484,978.000,1004.000,1012.000
3602.528,1010.000,995.000,1002.000
3607.568,1019.000,999.000,1006.000
3612.604,1007.000,995.000,1001.000
3617.637,1016.000,989.000,993.000
3622.667,1010.000,1012.000,980.000
3627.694,1008.000,1000.000,990.000
3632.718,1000.000,988.000,1001.000
3637.736,1020.000,1007.000,1017.000
3642.753,1003.000,1007.000,986.000
3647.767,1016.000,1001.000,1001.000
3652.777,1011.000,1013.000,1008.000
3657.784,983.000,1011.000,999.000
3662.786,995.000,997.000,1008.000
3667.786,1020.000,1001.000,1022.000
3672.783,996.000,998.000,1015.000
3677.777,1012.000,1002.000,1008.000
3682.767,997.000,1015.000,1026.000
3687.753,1012.000,990.000,1019.000
3692.737,1020.000,1003.000,1009.000
3697.717,1016.000,1008.000,1009.000
3702.695,1007.000,991.000,999.000
3707.668,1010.000,1031.000,999.000
3712.638,978.000,1006.000,986.000
3717.605,1012.000,1024.000,1001.000
3722.569,1011.000,978.000,985.000
3727.531,1008.000,991.000,1011.000
3732.487,1001.000,983.000,1001.000
3737.441,1000.000,1012.000,1006.000
3742.392,997.000,978.000,993.000
3747.340,982.000,1003.000,987.000
3752.284,985.000,1000.000,988.000
3757.226,974.000,991.000,995.000
3762.162,967.000,1015.000,1002.000
3767.097,992.000,988.000,1002.000
3772.029,997.000,978.000,995.000
3776.957,985.000,978.000,996.000
3781.882,981.000,989.000,980.000
3786.803,988.000,996.000,987.000
3791.722,983.000,973.000,991.000
3796.637,1011.000,980.000,993.000
3801.550,986.000,962.000,966.000
3806.457,985.000,973.000,976.000
3811.363,971.000,991.000,1005.000
3816.266,974.000,987.000,985.000
3821.165,973.000,981.000,996.000
3826.061,983.000,983.000,984.000
3830.953,979.000,970.000,974.000
3835.842,978.000,996.000,997.000
3840.730,973.000,965.000,982.000
3845.613,986.000,992.000,970.000
3850.493,974.000,969.000,980.000
3855.369,978.000,977.000,965.000
3860.243,968.000,966.000,986.000
3865.113,959.000,994.000,979.000
3869.981,974.000,962.000,976.000
3874.844,968.000,975.000,966.000
3879.705,975.000,985.000,985.000
3884.563,965.000,954.000,982.000
3889.418,972.000,950.000,959.000
3894.269,991.000,957.000,995.000
3899.117,994.000,965.000,951.000
3903.962,975.000,985.000,976.000
3908.805,982.000,959.000,983.000
3913.643,958.000,966.000,964.000
3918.479,967.000,995.000,973.000
3923.311,978.000,958.000,984.000
3928.140,987.000,950.000,991.000
3932.967,959.000,967.000,963.000
3937.791,983.000,987.000,958.000
3942.610,961.000,964.000,974.000
3947.427,973.000,967.000,974.000
3952.240,981.000,984.000,984.000
3957.052,935.000,960.000,959.000
3961.859,956.000,949.000,948.000
3966.662,973.000,975.000,958.000
3971.464,993.000,970.000,980.000
3976.263,987.000,991.000,963.000
3981.058,983.000,987.000,971.000
3985.849,981.000,964.000,996.000
3989.441,993.000,997.000,978.000

File: 2025_08_22_Nat_SiO2_Glass_XRD_50X_532nm_12mW_Kymera328_300gv_3000wn_3accum_30s_UnPol_Pos7.csv
-1027.971,3183.000,3174.000,3171.000
-988.527,3215.000,3196.000,3202.000
-949.242,3207.000,3215.000,3192.000
-910.112,3234.000,3230.000,3200.000
-871.134,3241.000,3241.000,3254.000
-832.312,3314.000,3290.000,3287.000
-793.643,3388.000,3379.000,3375.000
-755.126,3477.000,3468.000,3458.000
-716.759,3455.000,3453.000,3445.000
-678.542,3475.000,3507.000,3473.000
-640.479,3589.000,3552.000,3560.000
-602.559,3738.000,3706.000,3721.000
-564.789,3992.000,3981.000,4001.000
-527.164,4355.000,4348.000,4348.000
-489.688,5187.000,5175.000,5204.000
-452.355,6936.000,6964.000,6887.000
-415.165,8371.000,8376.000,8314.000
-378.122,9377.000,9369.000,9284.000
-341.221,9984.000,10045.000,10033.000
-304.460,10446.000,10392.000,10521.000
-267.840,10971.000,10875.000,10859.000
-231.358,11401.000,11323.000,11266.000
-195.022,11949.000,11973.000,11962.000
-158.818,13140.000,13029.000,12908.000
-122.755,15180.000,15059.000,14953.000
-86.827,18414.000,18205.000,18337.000
-51.039,23091.000,22920.000,22786.000
-15.382,37026.000,37048.000,37076.000
20.139,41536.000,41139.000,41028.000
55.524,39645.000,39264.000,39348.000
90.779,38179.000,37955.000,38144.000
125.899,30654.000,30424.000,30449.000
160.890,27440.000,27163.000,27229.000
195.746,25403.000,25260.000,25310.000
230.476,25826.000,25679.000,25547.000
265.077,27794.000,27489.000,27432.000
299.547,31124.000,30578.000,30665.000
333.888,34526.000,34179.000,34216.000
368.102,37859.000,37351.000,37368.000
402.192,41216.000,40938.000,40934.000
436.157,43174.000,43088.000,42786.000
469.991,42813.000,42571.000,42550.000
503.705,38893.000,38698.000,38624.000
537.295,28971.000,28506.000,28423.000
570.762,18000.000,17607.000,17618.000
604.103,14483.000,14110.000,14078.000
637.326,13799.000,13234.000,13114.000
670.426,11701.000,11319.000,11150.000
703.408,10870.000,10485.000,10170.000
736.267,10639.000,10449.000,10189.000
769.008,11383.000,10985.000,10730.000
801.632,13470.000,13046.000,12811.000
834.134,14658.000,14291.000,15294.000
866.524,12982.000,12484.000,12293.000
898.796,10627.000,10038.000,9872.000
930.951,9756.000,9228.000,9019.000
962.991,9520.000,9047.000,8690.000
994.915,9641.000,9181.000,8821.000
1026.727,9991.000,9395.000,9212.000
1058.424,10936.000,10347.000,10020.000
1090.008,11415.000,10982.000,10588.000
1121.480,10872.000,10386.000,10018.000
1152.842,10326.000,9816.000,9475.000
1184.092,10545.000,10101.000,9642.000
1215.230,10704.000,10166.000,9911.000
1246.260,10516.000,10051.000,9665.000
1277.179,10100.000,9387.000,9186.000
1307.992,9683.000,9209.000,8708.000
1338.694,9475.000,8986.000,8674.000
1369.289,9650.000,9036.000,8757.000
1399.779,9596.000,9068.000,8688.000
1430.161,9768.000,9245.000,8852.000
1460.436,9879.000,9447.000,8872.000
1490.606,10049.000,9527.000,9070.000
1520.672,10215.000,9602.000,9265.000
1550.635,10340.000,9746.000,9410.000
1580.490,10402.000,9855.000,9514.000
1610.246,10449.000,9934.000,9565.000
1639.897,10457.000,9916.000,9560.000
1669.446,10434.000,9822.000,9483.000
1698.894,10191.000,9809.000,9467.000
1728.242,10214.000,9591.000,9303.000
1757.489,10044.000,9564.000,9344.000
1786.634,10090.000,9616.000,9216.000
1815.682,10031.000,9529.000,9178.000
1844.629,10041.000,9696.000,9340.000
1873.479,10262.000,9641.000,9367.000
1902.231,10243.000,9772.000,9431.000
1930.883,10422.000,9863.000,9520.000
1959.441,10442.000,9884.000,9541.000
1987.901,10361.000,9813.000,9578.000
2016.264,10346.000,9869.000,9588.000
2044.532,10307.000,9881.000,9587.000
2072.707,10316.000,9986.000,9600.000
2100.785,10461.000,9958.000,9699.000
2128.769,10476.000,9958.000,9675.000
2156.662,10402.000,9949.000,9674.000
2184.459,10403.000,10052.000,9803.000
2212.165,10423.000,10009.000,9707.000
2239.776,10447.000,10060.000,9807.000
2267.299,10494.000,10045.000,9845.000
2294.729,10556.000,10138.000,9836.000
2322.066,10589.000,10194.000,9972.000
2349.315,10749.000,10334.000,10021.000
2376.473,10832.000,10352.000,10119.000
2403.543,10896.000,10519.000,10127.000
2430.521,11011.000,10529.000,10119.000
2457.413,11023.000,10518.000,10110.000
2484.215,10896.000,10451.000,10199.000
2510.932,10993.000,10617.000,10135.000
2537.559,11017.000,10551.000,10145.000
2564.099,10917.000,10557.000,10158.000
2590.555,10981.000,10443.000,10153.000
2616.923,10992.000,10413.000,10272.000
2643.205,11016.000,10476.000,10277.000
2669.403,10980.000,10583.000,10287.000
2695.516,10961.000,10445.000,10217.000
2721.544,10897.000,10456.000,10243.000
2747.486,10858.000,10588.000,10176.000
2773.348,10951.000,10524.000,10216.000
2799.124,10958.000,10511.000,10337.000
2824.821,10999.000,10658.000,10348.000
2850.431,11139.000,10652.000,10497.000
2875.962,11312.000,10829.000,10616.000
2901.412,11298.000,10907.000,10744.000
2926.776,11409.000,11011.000,10682.000
2952.064,11432.000,11098.000,10801.000
2977.269,11405.000,11075.000,10762.000
3002.396,11403.000,11001.000,10682.000
3027.442,11425.000,11085.000,10795.000
3052.408,11421.000,10980.000,10746.000
3077.298,11533.000,11063.000,10787.000
3102.106,11524.000,11121.000,10852.000
3126.837,11585.000,11105.000,10850.000
3151.492,11459.000,11051.000,10751.000
3176.067,11551.000,11060.000,10885.000
3200.565,11507.000,11136.000,11017.000
3224.987,11565.000,11211.000,10956.000
3249.334,11660.000,11220.000,10938.000
3273.603,11636.000,11417.000,11064.000
3297.798,11589.000,11230.000,10983.000
3321.915,11584.000,11256.000,11139.000
3345.960,11680.000,11211.000,11077.000
3369.930,11562.000,11310.000,10961.000
3393.825,11610.000,11335.000,11035.000
3417.645,11624.000,11249.000,11015.000
3441.392,11622.000,11207.000,10977.000
3465.068,11474.000,11305.000,10922.000
3488.670,11416.000,11102.000,10863.000
3512.197,11410.000,11089.000,10855.000
3535.655,11466.000,11142.000,10881.000
3559.039,11430.000,11151.000,10953.000
3582.352,11497.000,11319.000,10967.000
3605.593,11581.000,11260.000,11119.000
3628.765,11579.000,11251.000,10966.000
3651.866,11564.000,11237.000,11060.000
3674.895,11622.000,11365.000,11113.000
3697.857,11634.000,11217.000,11072.000
3720.747,11323.000,11052.000,10924.000
3743.569,11300.000,10907.000,10827.000
3766.319,11151.000,10952.000,10698.000
3789.004,11153.000,10833.000,10651.000
3811.621,11019.000,10795.000,10564.000
3834.167,10961.000,10706.000,10523.000
3856.647,10946.000,10633.000,10555.000
3879.058,11018.000,10569.000,10333.000
3901.404,10889.000,10524.000,10406.000
3923.684,10851.000,10699.000,10485.000
3945.893,10796.000,10519.000,10340.000
3968.038,10824.000,10571.000,10425.000
3990.118,10807.000,10472.000,10355.000
4012.134,10784.000,10431.000,10292.000
4034.080,10730.000,10563.000,10167.000
4055.964,10779.000,10509.000,10217.000
4077.783,10670.000,10278.000,10204.000
4099.536,10628.000,10363.000,10221.000
4121.226,10467.000,10244.000,10043.000
4142.852,10377.000,10263.000,10074.000
4164.415,10283.000,10137.000,9956.000
4185.913,10179.000,9966.000,9867.000
4207.349,10118.000,10053.000,9736.000
4228.723,10179.000,9916.000,9761.000
4250.033,10031.000,9967.000,9748.000
4271.280,10123.000,9947.000,9687.000
4292.468,9932.000,9909.000,9638.000
4313.592,9973.000,9945.000,9595.000
4334.655,9952.000,9768.000,9692.000
4355.657,10003.000,9798.000,9612.000
4376.597,9817.000,9634.000,9437.000
4397.479,9804.000,9518.000,9430.000
4418.300,9532.000,9438.000,9185.000
4439.058,9415.000,9430.000,9288.000
4459.759,9410.000,9345.000,9189.000
4480.399,9413.000,9216.000,9173.000
4500.980,9333.000,10049.000,9123.000
4521.502,9232.000,9042.000,9040.000
4541.965,9172.000,8835.000,8765.000
4562.370,8928.000,8820.000,8727.000
4582.715,8962.000,8787.000,8745.000
4603.004,8952.000,8752.000,8634.000
4623.234,8881.000,8707.000,8606.000
4643.407,8723.000,8674.000,8520.000
4663.522,8701.000,8498.000,8375.000
4683.581,8594.000,8491.000,8388.000
4703.582,8486.000,8435.000,8320.000
4723.528,8493.000,8316.000,8241.000
4743.415,8430.000,8399.000,8217.000
4763.248,8346.000,8254.000,8101.000
4783.024,8298.000,8087.000,8025.000
4802.746,8206.000,8070.000,7974.000
4822.410,8082.000,7984.000,7951.000
4842.021,8112.000,7961.000,7795.000
4861.577,8031.000,7825.000,7696.000
4881.077,7963.000,7831.000,7668.000
4900.523,7877.000,7851.000,7625.000
4919.915,7831.000,7694.000,7607.000
4939.251,7829.000,7686.000,7750.000
4958.537,7758.000,7628.000,7543.000
4977.766,7662.000,7559.000,7576.000
4996.943,7731.000,7650.000,7434.000
5016.067,7623.000,7441.000,7487.000
5035.138,7599.000,7467.000,7369.000
5054.156,7441.000,7306.000,7382.000
5073.122,7523.000,7355.000,7283.000
5092.035,7314.000,7277.000,7250.000
5110.895,7358.000,7174.000,7147.000
5129.704,7254.000,7197.000,7103.000
5148.464,7183.000,7134.000,7070.000
5167.170,7129.000,7143.000,6976.000
5185.825,7105.000,7000.000,6941.000
5204.428,6987.000,6923.000,6864.000
5222.982,6859.000,6876.000,6813.000
5241.485,6914.000,6818.000,6756.000
5259.937,6866.000,6733.000,6732.000
5278.340,6867.000,6765.000,6728.000
5296.692,6777.000,6798.000,6744.000
5314.995,6829.000,6731.000,6659.000
5333.247,6855.000,6765.000,6691.000
5351.451,6809.000,6796.000,6712.000
5369.606,6782.000,6723.000,6670.000
5387.711,6682.000,6641.000,6554.000
5405.768,6605.000,6523.000,6492.000
5423.777,6616.000,6572.000,6430.000
5441.736,6535.000,6549.000,6412.000
5459.648,6550.000,6466.000,6460.000
5477.510,6539.000,6454.000,6393.000
5495.328,6403.000,6427.000,6417.000
5513.095,6378.000,6334.000,6332.000
5530.816,6426.000,6321.000,6290.000
5548.489,6386.000,6260.000,6226.000
5566.116,6411.000,6301.000,6303.000
5583.697,6465.000,6384.000,6225.000
5601.228,6391.000,6287.000,6184.000
5618.716,6304.000,6348.000,6209.000
5636.157,6330.000,6260.000,6191.000
5653.551,6255.000,6227.000,6140.000
5666.567,6295.000,6258.000,6171.000