Folder: Data/Raman/Silica (part 130)

File: BB1392_SiO2_8wtPctH2O_glass_50X_532nm_750uW_Kymera328_300gv_2000wn_5accum_60s_Unpol_spec.csv
-2633.671,15285.000
-2587.503,15303.000
-2541.538,15283.000
-2495.768,15297.000
-2450.194,15279.000
-2404.815,15288.000
-2359.630,15260.000
-2314.635,15290.000
-2269.831,15285.000
-2225.221,15287.000
-2180.797,15281.000
-2136.557,15271.000
-2092.508,15259.000
-2048.642,15278.000
-2004.959,15262.000
-1961.459,15301.000
-1918.143,15271.000
-1875.004,15297.000
-1832.047,15307.000
-1789.269,15302.000
-1746.666,15315.000
-1704.237,15335.000
-1661.988,15337.000
-1619.908,15346.000
-1578.003,15328.000
-1536.271,15356.000
-1494.706,18233.000
-1453.313,15384.000
-1412.088,15389.000
-1371.031,15387.000
-1330.139,15416.000
-1289.414,15406.000
-1248.853,15402.000
-1208.454,15424.000
-1168.219,15434.000
-1128.146,15447.000
-1088.232,15424.000
-1048.479,15433.000
-1008.886,15447.000
-969.447,15441.000
-930.168,15471.000
-891.043,15484.000
-852.072,15452.000
-813.257,15503.000
-774.595,15540.000
-736.085,15520.000
-697.725,15514.000
-659.518,15537.000
-621.457,15604.000
-583.545,15622.000
-545.781,15705.000
-508.167,15874.000
-470.697,16228.000
-433.370,16623.000
-396.191,16710.000
-359.152,16786.000
-322.259,16882.000
-285.508,16941.000
-248.895,17107.000
-212.425,17353.000
-176.091,17776.000
-139.897,18509.000
-103.843,19790.000
-67.925,21597.000
-32.142,24900.000
3.504,29351.000
39.017,31973.000
74.396,27441.000
109.639,25452.000
144.754,23497.000
179.733,21953.000
214.582,21158.000
249.303,20938.000
283.893,20994.000
318.354,21279.000
352.688,21758.000
386.895,22553.000
420.971,23298.000
454.925,24193.000
488.754,24739.000
522.458,23287.000
556.038,19840.000
589.495,18340.000
622.828,17688.000
656.039,17246.000
689.132,17134.000
722.100,16933.000
754.953,16935.000
787.685,17210.000
820.297,17495.000
852.793,17149.000
885.169,16834.000
917.429,16910.000
949.576,17311.000
981.604,17837.000
1013.521,17563.000
1045.321,16923.000
1077.007,16786.000
1108.582,16648.000
1140.044,16503.000
1171.394,16511.000
1202.634,16611.000
1233.764,16465.000
1264.780,16351.000
1295.690,16280.000
1326.492,16229.000
1357.183,16229.000
1387.768,16254.000
1418.247,16307.000
1448.617,16300.000
1478.882,16284.000
1509.041,16340.000
1539.096,16336.000
1569.048,16395.000
1598.895,16418.000
1628.637,16473.000
1658.279,16392.000
1687.817,16395.000
1717.252,16356.000
1746.589,16310.000
1775.826,16269.000
1804.960,16323.000
1833.996,16279.000
1862.933,16316.000
1891.769,16340.000
1920.510,16340.000
1949.153,16371.000
1977.697,16362.000
2006.148,16359.000
2034.499,16384.000
2062.757,16422.000
2090.918,16440.000
2118.984,16424.000
2146.958,16420.000
2174.839,16442.000
2202.624,16461.000
2230.317,16427.000
2257.920,16432.000
2285.428,16481.000
2312.846,17116.000
2340.175,16521.000
2367.410,16574.000
2394.558,16485.000
2421.614,16509.000
2448.582,16528.000
2475.462,17769.000
2502.254,17019.000
2528.956,16533.000
2555.573,16541.000
2582.103,16546.000
2608.542,16536.000
2634.900,16576.000
2661.171,16566.000
2687.355,16574.000
2713.457,16591.000
2739.474,16615.000
2765.405,16647.000
2791.252,16649.000
2817.019,16643.000
2842.701,16816.000
2868.302,16821.000
2893.820,16925.000
2919.256,16999.000
2944.611,17052.000
2969.885,17083.000
2995.078,17201.000
3020.192,17340.000
3045.228,17447.000
3070.181,17470.000
3095.057,17581.000
3119.854,17703.000
3144.573,17860.000
3169.215,17982.000
3193.777,18102.000
3218.265,18153.000
3242.675,18249.000
3267.007,18677.000
3291.267,18442.000
3315.447,18521.000
3339.553,18628.000
3363.585,18805.000
3387.543,18883.000
3411.425,18975.000
3435.233,19036.000
3458.969,19079.000
3482.630,19119.000
3506.219,19192.000
3529.738,19262.000
3553.180,19440.000
3576.554,19809.000
3599.853,19886.000
3623.083,19584.000
3646.243,19158.000
3669.331,18735.000
3692.348,17788.000
3715.297,17222.000
3738.176,16968.000
3760.983,16858.000
3783.723,16839.000
3806.395,16719.000
3828.997,16802.000
3851.533,16732.000
3874.000,16796.000
3896.401,16802.000
3918.733,16777.000
3940.998,16827.000
3963.197,16772.000
3985.330,16847.000
4007.397,16781.000
4029.397,16788.000
4051.335,16772.000
4073.204,18535.000
4095.011,16773.000
4116.753,16751.000
4138.430,16720.000
4160.044,16739.000
4181.594,16732.000
4203.079,16739.000
4224.503,16710.000
4245.864,16720.000
4267.161,16748.000
4288.398,16695.000
4309.573,16765.000
4330.682,16726.000
4351.733,16776.000
4372.724,16747.000
4393.652,16734.000
4414.521,16704.000
4435.329,16665.000
4456.075,16752.000
4476.762,16675.000
4497.391,19751.000
4517.959,16728.000
4538.469,16694.000
4558.920,16689.000
4579.311,16706.000
4599.647,16638.000
4619.922,16714.000
4640.138,16664.000
4660.299,16721.000
4680.403,16671.000
4700.449,16670.000
4720.437,16640.000
4740.371,16640.000
4760.245,16645.000
4780.066,16708.000
4799.829,16687.000
4819.538,16602.000
4839.192,16617.000
4858.787,16667.000
4878.332,16716.000
4897.820,16635.000
4917.252,16645.000
4936.633,16685.000
4955.958,16718.000
4975.229,16769.000
4989.649,16848.000

File: Natural_SiO2_glass_50X_532nm_12mW_Kymera328_300gv_2000wn_5accum_60s_Unpol_spec.csv
-2633.671,15571.000
-2587.503,15622.000
-2541.538,15584.000
-2495.768,15598.000
-2450.194,15553.000
-2404.815,15546.000
-2359.630,15544.000
-2314.635,15531.000
-2269.831,15533.000
-2225.221,15520.000
-2180.797,15504.000
-2136.557,15525.000
-2092.508,15537.000
-2048.642,15518.000
-2004.959,15518.000
-1961.459,15551.000
-1918.143,15566.000
-1875.004,15583.000
-1832.047,15622.000
-1789.269,15621.000
-1746.666,15636.000
-1704.237,15653.000
-1661.988,15668.000
-1619.908,15726.000
-1578.003,15749.000
-1536.271,15752.000
-1494.706,15776.000
-1453.313,15809.000
-1412.088,15824.000
-1371.031,15881.000
-1330.139,15870.000
-1289.414,15928.000
-1248.853,15929.000
-1208.454,15970.000
-1168.219,16054.000
-1128.146,16054.000
-1088.232,16123.000
-1048.479,16218.000
-1008.886,16274.000
-969.447,16331.000
-930.168,16394.000
-891.043,16434.000
-852.072,16559.000
-813.257,16913.000
-774.595,17318.000
-736.085,17311.000
-697.725,17220.000
-659.518,17505.000
-621.457,17892.000
-583.545,18924.000
-545.781,20297.000
-508.167,23213.000
-470.697,30874.000
-433.370,39094.000
-396.191,44380.000
-359.152,48095.000
-322.259,50047.000
-285.508,52448.000
-248.895,53555.000
-212.425,55896.000
-176.091,59721.000
-139.897,68063.000
-103.843,82972.000
-67.925,103843.000
-32.142,149017.000
3.504,212407.000
39.017,262813.000
74.396,180016.000
109.639,162321.000
144.754,138017.000
179.733,122894.000
214.582,119517.000
249.303,126393.000
283.893,140504.000
318.354,157520.000
352.688,174424.000
386.895,191651.000
420.971,204027.000
454.925,207242.000
488.754,190928.000
522.458,148887.000
556.038,85918.000
589.495,60257.000
622.828,55432.000
656.039,46266.000
689.132,39423.000
722.100,37714.000
754.953,39798.000
787.685,48074.000
820.297,58023.000
852.793,51489.000
885.169,38409.000
917.429,32442.000
949.576,30740.000
981.604,30275.000
1013.521,30924.000
1045.321,34653.000
1077.007,38233.000
1108.582,35787.000
1140.044,32490.000
1171.394,32520.000
1202.634,33703.000
1233.764,33103.000
1264.780,30753.000
1295.690,28489.000
1326.492,27426.000
1357.183,27291.000
1387.768,27325.000
1418.247,27275.000
1448.617,27664.000
1478.882,27910.000
1509.041,28202.000
1539.096,28419.000
1569.048,29099.000
1598.895,29394.000
1628.637,29248.000
1658.279,28947.000
1687.817,28676.000
1717.252,27768.000
1746.589,27356.000
1775.826,27334.000
1804.960,27206.000
1833.996,27209.000
1862.933,27297.000
1891.769,27353.000
1920.510,27273.000
1949.153,27299.000
1977.697,27369.000
2006.148,27401.000
2034.499,27257.000
2062.757,27211.000
2090.918,27412.000
2118.984,27644.000
2146.958,27515.000
2174.839,27759.000
2202.624,27642.000
2230.317,27651.000
2257.920,27709.000
2285.428,27901.000
2312.846,28034.000
2340.175,28414.000
2367.410,29513.000
2394.558,28106.000
2421.614,28004.000
2448.582,27989.000
2475.462,27966.000
2502.254,27960.000
2528.956,27754.000
2555.573,27783.000
2582.103,27791.000
2608.542,27810.000
2634.900,27640.000
2661.171,27822.000
2687.355,27731.000
2713.457,27802.000
2739.474,27841.000
2765.405,27795.000
2791.252,27877.000
2817.019,27932.000
2842.701,28100.000
2868.302,28279.000
2893.820,28568.000
2919.256,28490.000
2944.611,28458.000
2969.885,28372.000
2995.078,28414.000
3020.192,28383.000
3045.228,28453.000
3070.181,28453.000
3095.057,28642.000
3119.854,28723.000
3144.573,28640.000
3169.215,28763.000
3193.777,28643.000
3218.265,28820.000
3242.675,28893.000
3267.007,28825.000
3291.267,28860.000
3315.447,28752.000
3339.553,28673.000
3363.585,28705.000
3387.543,28836.000
3411.425,28717.000
3435.233,28648.000
3458.969,28646.000
3482.630,28711.000
3506.219,28586.000
3529.738,28759.000
3553.180,28746.000
3576.554,28814.000
3599.853,28861.000
3623.083,28851.000
3646.243,29054.000
3669.331,29019.000
3692.348,29202.000
3715.297,28781.000
3738.176,28261.000
3760.983,28088.000
3783.723,28159.000
3806.395,27987.000
3828.997,27866.000
3851.533,27872.000
3874.000,27733.000
3896.401,27846.000
3918.733,27804.000
3940.998,27767.000
3963.197,27604.000
3985.330,27661.000
4007.397,27587.000
4029.397,27304.000
4051.335,27274.000
4073.204,27324.000
4095.011,27222.000
4116.753,27023.000
4138.430,27126.000
4160.044,27096.000
4181.594,27009.000
4203.079,26926.000
4224.503,26900.000
4245.864,26786.000
4267.161,26788.000
4288.398,26766.000
4309.573,26765.000
4330.682,26488.000
4351.733,26545.000
4372.724,26263.000
4393.652,26340.000
4414.521,26198.000
4435.329,26201.000
4456.075,26154.000
4476.762,25914.000
4497.391,25867.000
4517.959,25914.000
4538.469,25759.000
4558.920,25672.000
4579.311,25482.000
4599.647,25398.000
4619.922,25440.000
4640.138,25322.000
4660.299,25141.000
4680.403,24937.000
4700.449,29071.000
4720.437,24671.000
4740.371,24712.000
4760.245,24647.000
4780.066,24575.000
4799.829,24575.000
4819.538,24383.000
4839.192,24420.000
4858.787,24095.000
4878.332,24086.000
4897.820,24080.000
4917.252,24019.000
4936.633,24172.000
4955.958,24069.000
4975.229,23984.000
4989.649,24073.000