Folder: Data/Raman/Silica (part 8)

File: 2022_12_08_Qtz_355nm_UnPol_11mW_750mm_600gv_2150wn_iDus_10s_1accum_50x_Mit_UV_Lens.csv
64.816,23056.000
82.386,1011.000
99.935,1625.000
117.462,4091.000
134.967,3343.000
152.452,1678.000
169.913,949.000
187.353,2230.000
204.771,1022.000
222.167,1037.000
239.541,1412.000
256.894,3345.000
274.225,2196.000
291.537,1207.000
308.826,1098.000
326.093,1000.000
343.338,868.000
360.562,844.000
377.765,817.000
394.947,854.000
412.107,1045.000
429.246,823.000
446.367,1078.000
463.464,892.000
480.540,953.000
497.594,1587.000
514.628,14248.000
531.641,1971.000
548.633,1275.000
565.604,1155.000
582.554,1099.000
599.486,1043.000
616.394,966.000
633.282,939.000
650.149,915.000
666.996,915.000
683.822,914.000
700.627,884.000
717.412,893.000
734.176,939.000
750.923,951.000
767.646,911.000
784.349,917.000
801.032,948.000
817.694,934.000
834.336,970.000
850.958,1457.000
867.560,981.000
884.143,960.000
900.705,979.000
917.246,976.000
933.767,992.000
950.269,1012.000
966.750,1020.000
983.211,1023.000
999.652,1002.000
1016.074,1011.000
1032.478,1021.000
1048.860,1035.000
1065.222,1036.000
1081.564,1041.000
1097.887,1068.000
1114.190,1160.000
1130.473,1105.000
1146.737,1044.000
1162.983,1067.000
1179.208,1121.000
1195.413,1468.000
1211.599,1142.000
1227.765,1138.000
1243.912,1152.000
1260.040,1212.000
1276.148,1207.000
1292.237,1179.000
1308.307,1185.000
1324.360,1196.000
1340.391,1225.000
1356.403,1209.000
1372.396,1205.000
1388.371,1216.000
1404.326,1245.000
1420.262,1282.000
1436.179,1348.000
1452.079,1340.000
1467.959,1352.000
1483.819,1378.000
1499.661,1329.000
1515.483,1386.000
1531.287,1403.000
1547.073,1459.000
1562.839,1467.000
1578.587,1498.000
1594.319,1485.000
1610.029,1538.000
1625.721,1519.000
1641.395,1549.000
1657.050,1575.000
1672.687,1560.000
1688.305,1607.000
1703.905,1619.000
1719.488,1614.000
1735.051,1605.000
1750.596,1650.000
1766.123,1628.000
1781.631,1641.000
1797.121,1635.000
1812.593,1710.000
1828.047,1744.000
1843.482,1803.000
1858.902,1809.000
1874.302,1855.000
1889.683,1883.000
1905.047,1858.000
1920.392,1918.000
1935.720,1906.000
1951.030,1942.000
1966.321,2025.000
1981.598,1956.000
1996.854,1974.000
2012.092,1968.000
2027.313,1945.000
2042.516,1975.000
2057.702,1990.000
2072.869,2029.000
2088.019,2013.000
2103.152,2026.000
2118.267,2115.000
2133.367,2153.000
2148.446,2135.000
2163.509,2176.000
2178.554,2209.000
2193.582,2190.000
2208.592,2219.000
2223.585,2298.000
2238.561,2305.000
2253.521,2300.000
2268.462,2332.000
2283.386,2383.000
2298.293,2480.000
2313.183,2457.000
2328.055,2401.000
2342.911,2443.000
2357.749,2438.000
2372.570,2438.000
2387.376,2427.000
2402.164,2452.000
2416.934,2498.000
2431.687,2569.000
2446.424,2531.000
2461.143,2535.000
2475.846,2628.000
2490.532,2615.000
2505.203,2600.000
2519.856,2646.000
2534.492,2721.000
2549.111,2780.000
2563.713,2820.000
2578.299,2861.000
2592.868,2746.000
2607.420,2796.000
2621.956,2794.000
2636.476,2822.000
2650.981,2818.000
2665.467,2864.000
2679.937,2830.000
2694.391,2877.000
2708.828,2883.000
2723.249,2878.000
2737.654,2981.000
2752.044,3000.000
2766.416,2993.000
2780.772,3015.000
2795.111,3031.000
2809.435,3084.000
2823.742,3136.000
2838.033,3089.000
2852.308,3078.000
2866.567,3127.000
2880.810,3193.000
2895.038,3144.000
2909.249,3175.000
2923.444,3212.000
2937.623,3210.000
2951.786,3255.000
2965.933,3222.000
2980.064,3286.000
2994.180,3234.000
3008.281,3260.000
3022.365,3240.000
3036.433,3282.000
3050.485,3258.000
3064.522,3294.000
3078.543,3266.000
3092.548,3339.000
3106.538,3410.000
3120.512,3487.000
3134.472,3475.000
3148.415,3473.000
3162.342,3491.000
3176.254,3511.000
3190.151,3532.000
3204.032,3557.000
3217.897,3589.000
3231.747,3616.000
3245.584,3592.000
3259.403,3592.000
3273.208,3580.000
3286.996,3534.000
3300.770,3612.000
3314.528,3584.000
3328.271,3628.000
3341.999,3579.000
3355.712,3651.000
3369.410,3731.000
3383.094,3764.000
3396.761,3696.000
3410.414,3706.000
3424.051,3746.000
3437.673,3665.000
3451.281,3559.000
3464.873,3704.000
3478.452,3857.000
3492.015,3877.000
3505.562,3945.000
3519.095,3880.000
3532.613,3907.000
3546.116,3924.000
3559.604,4013.000
3573.078,4005.000
3586.537,4068.000
3599.981,4083.000
3613.412,4041.000
3626.826,3946.000
3640.226,4059.000
3653.612,4138.000
3666.983,4436.000
3680.339,4069.000
3693.681,4140.000
3707.008,4035.000
3720.322,4101.000
3733.620,4140.000
3746.904,4220.000
3760.173,4200.000
3773.428,4238.000
3786.668,4219.000
3799.895,4249.000
3813.106,4391.000
3826.304,4335.000
3839.489,4380.000
3852.657,4402.000
3865.812,4447.000
3878.952,4534.000
3892.079,4461.000
3905.191,4460.000
3918.288,4545.000
3931.372,4554.000
3941.177,4506.000

File: 2022_12_08_Qtz_355nm_UnPol_11mW_750mm_600gv_2150wn_iDus_10s_1accum_50x_Mit_UV_Lens_2.csv
64.816,22254.000
82.386,1011.000
99.935,1651.000
117.462,3999.000
134.967,3243.000
152.452,1575.000
169.913,925.000
187.353,2152.000
204.771,1011.000
222.167,972.000
239.541,1379.000
256.894,3331.000
274.225,2133.000
291.537,1167.000
308.826,1040.000
326.093,969.000
343.338,856.000
360.562,802.000
377.765,795.000
394.947,818.000
412.107,1034.000
429.246,796.000
446.367,1072.000
463.464,849.000
480.540,902.000
497.594,1492.000
514.628,14160.000
531.641,1988.000
548.633,1216.000
565.604,1117.000
582.554,1043.000
599.486,991.000
616.394,904.000
633.282,878.000
650.149,860.000
666.996,859.000
683.822,837.000
700.627,825.000
717.412,840.000
734.176,897.000
750.923,885.000
767.646,848.000
784.349,861.000
801.032,838.000
817.694,860.000
834.336,914.000
850.958,1395.000
867.560,925.000
884.143,879.000
900.705,895.000
917.246,907.000
933.767,910.000
950.269,925.000
966.750,921.000
983.211,929.000
999.652,932.000
1016.074,918.000
1032.478,940.000
1048.860,937.000
1065.222,948.000
1081.564,934.000
1097.887,952.000
1114.190,1036.000
1130.473,971.000
1146.737,958.000
1162.983,947.000
1179.208,985.000
1195.413,1341.000
1211.599,1017.000
1227.765,987.000
1243.912,999.000
1260.040,1064.000
1276.148,1035.000
1292.237,1036.000
1308.307,1032.000
1324.360,1058.000
1340.391,1028.000
1356.403,1045.000
1372.396,1066.000
1388.371,1067.000
1404.326,1076.000
1420.262,1081.000
1436.179,1123.000
1452.079,1169.000
1467.959,1158.000
1483.819,1153.000
1499.661,1179.000
1515.483,1178.000
1531.287,1173.000
1547.073,1211.000
1562.839,1224.000
1578.587,1248.000
1594.319,1272.000
1610.029,1259.000
1625.721,1274.000
1641.395,1280.000
1657.050,1334.000
1672.687,1294.000
1688.305,1332.000
1703.905,1351.000
1719.488,1330.000
1735.051,1325.000
1750.596,1340.000
1766.123,1330.000
1781.631,1345.000
1797.121,1347.000
1812.593,1397.000
1828.047,1427.000
1843.482,1466.000
1858.902,1444.000
1874.302,1439.000
1889.683,1507.000
1905.047,1472.000
1920.392,1528.000
1935.720,1553.000
1951.030,1555.000
1966.321,1556.000
1981.598,1559.000
1996.854,1565.000
2012.092,1617.000
2027.313,1569.000
2042.516,1570.000
2057.702,1591.000
2072.869,1596.000
2088.019,1623.000
2103.152,1640.000
2118.267,1651.000
2133.367,1694.000
2148.446,1694.000
2163.509,1720.000
2178.554,1754.000
2193.582,1745.000
2208.592,1749.000
2223.585,1787.000
2238.561,1786.000
2253.521,1792.000
2268.462,1828.000
2283.386,1830.000
2298.293,1903.000
2313.183,1920.000
2328.055,1911.000
2342.911,1925.000
2357.749,1898.000
2372.570,1955.000
2387.376,1922.000
2402.164,1947.000
2416.934,1958.000
2431.687,2002.000
2446.424,1990.000
2461.143,2008.000
2475.846,2055.000
2490.532,2067.000
2505.203,2043.000
2519.856,2076.000
2534.492,2138.000
2549.111,2132.000
2563.713,2132.000
2578.299,2173.000
2592.868,2196.000
2607.420,2174.000
2621.956,2198.000
2636.476,2176.000
2650.981,2169.000
2665.467,2202.000
2679.937,2213.000
2694.391,2217.000
2708.828,2259.000
2723.249,2275.000
2737.654,2284.000
2752.044,2336.000
2766.416,2271.000
2780.772,2336.000
2795.111,2328.000
2809.435,2339.000
2823.742,2393.000
2838.033,2392.000
2852.308,2380.000
2866.567,2440.000
2880.810,2431.000
2895.038,2429.000
2909.249,2431.000
2923.444,2502.000
2937.623,2456.000
2951.786,2551.000
2965.933,2459.000
2980.064,2506.000
2994.180,2473.000
3008.281,2496.000
3022.365,2491.000
3036.433,2519.000
3050.485,2541.000
3064.522,2596.000
3078.543,2569.000
3092.548,2636.000
3106.538,2650.000
3120.512,2630.000
3134.472,2651.000
3148.415,2674.000
3162.342,2667.000
3176.254,2701.000
3190.151,2757.000
3204.032,2749.000
3217.897,2731.000
3231.747,2818.000
3245.584,2774.000
3259.403,2787.000
3273.208,2732.000
3286.996,2782.000
3300.770,2789.000
3314.528,2782.000
3328.271,2815.000
3341.999,2745.000
3355.712,2858.000
3369.410,2853.000
3383.094,2815.000
3396.761,2819.000
3410.414,2897.000
3424.051,2826.000
3437.673,2772.000
3451.281,2821.000
3464.873,2846.000
3478.452,3000.000
3492.015,2970.000
3505.562,3053.000
3519.095,3030.000
3532.613,3035.000
3546.116,3096.000
3559.604,3129.000
3573.078,3074.000
3586.537,3165.000
3599.981,3168.000
3613.412,3154.000
3626.826,3116.000
3640.226,3122.000
3653.612,3162.000
3666.983,3107.000
3680.339,3134.000
3693.681,3148.000
3707.008,3181.000
3720.322,3232.000
3733.620,3233.000
3746.904,3219.000
3760.173,3297.000
3773.428,3309.000
3786.668,3339.000
3799.895,3313.000
3813.106,3341.000
3826.304,3337.000
3839.489,3394.000
3852.657,3392.000
3865.812,3447.000
3878.952,3456.000
3892.079,3437.000
3905.191,3448.000
3918.288,3497.000
3931.372,3510.000
3941.177,3509.000

File: 2022_12_08_Qtz_355nm_UnPol_11mW_750mm_1200gv_0wn_iDus_1s_1accum_50x_Mit_UV_Lens.csv
-1149.966,632.000
-1140.635,635.000
-1131.308,636.000
-1121.989,640.000
-1112.673,640.000
-1103.366,635.000
-1094.065,640.000
-1084.767,640.000
-1075.478,639.000
-1066.192,634.000
-1056.914,637.000
-1047.640,632.000
-1038.375,639.000
-1029.115,635.000
-1019.858,641.000
-1010.610,637.000
-1001.365,637.000
-992.129,635.000
-982.898,636.000
-973.671,639.000
-964.452,642.000
-955.236,641.000
-946.029,638.000
-936.825,643.000
-927.630,639.000
-918.440,638.000
-909.253,637.000
-900.075,645.000
-890.900,639.000
-881.734,635.000
-872.573,638.000
-863.415,633.000
-854.266,639.000
-845.120,633.000
-835.982,637.000
-826.848,635.000
-817.721,636.000
-808.601,632.000
-799.484,644.000
-790.375,640.000
-781.269,637.000
-772.171,639.000
-763.077,638.000
-753.991,642.000
-744.910,644.000
-735.833,640.000
-726.764,640.000
-717.698,639.000
-708.640,633.000
-699.588,636.000
-690.539,637.000
-681.499,640.000
-672.461,639.000
-663.432,639.000
-654.408,639.000
-645.388,639.000
-636.375,645.000
-627.366,639.000
-618.365,640.000
-609.367,639.000
-600.377,640.000
-591.393,635.000
-582.412,641.000
-573.439,642.000
-564.469,637.000
-555.507,641.000
-546.551,640.000
-537.597,638.000
-528.652,637.000
-519.710,639.000
-510.776,641.000
-501.846,638.000
-492.923,642.000
-484.005,639.000
-475.091,638.000
-466.185,638.000
-457.282,640.000
-448.387,642.000
-439.497,638.000
-430.611,636.000
-421.732,642.000
-412.857,639.000
-403.989,635.000
-395.125,638.000
-386.268,639.000
-377.417,640.000
-368.569,639.000
-359.729,640.000
-350.892,634.000
-342.063,642.000
-333.236,636.000
-324.418,637.000
-315.606,646.000
-306.796,642.000
-297.994,633.000
-289.195,638.000
-280.404,643.000
-271.619,637.000
-262.836,639.000
-254.061,637.000
-245.289,639.000
-236.526,636.000
-227.767,636.000
-219.012,634.000
-210.264,637.000
-201.519,646.000
-192.782,638.000
-184.048,638.000
-175.322,642.000
-166.601,640.000
-157.884,640.000
-149.174,635.000
-140.466,638.000
-131.767,641.000
-123.073,636.000
-114.382,642.000
-105.699,638.000
-97.018,647.000
-88.346,634.000
-79.676,641.000
-71.014,644.000
-62.357,636.000
-53.703,637.000
-45.057,636.000
-36.414,643.000
-27.778,642.000
-19.148,643.000
-10.521,657.000
-1.901,787.000
6.716,34094.000
15.325,770.000
23.931,657.000
32.530,672.000
41.123,819.000
49.714,879.000
58.297,808.000
66.877,697.000
75.449,657.000
84.016,641.000
92.581,645.000
101.137,645.000
109.691,644.000
118.237,649.000
126.781,666.000
135.317,809.000
143.848,670.000
152.375,654.000
160.896,660.000
169.413,656.000
177.923,668.000
186.428,679.000
194.930,693.000
203.425,755.000
211.916,826.000
220.400,800.000
228.882,715.000
237.356,671.000
245.824,675.000
254.290,671.000
262.749,667.000
271.204,697.000
279.653,654.000
288.098,650.000
296.536,655.000
304.969,649.000
313.399,650.000
321.822,645.000
330.242,644.000
338.654,644.000
347.062,639.000
355.466,653.000
363.864,687.000
372.258,640.000
380.645,645.000
389.027,652.000
397.407,662.000
405.779,656.000
414.148,646.000
422.510,654.000
430.869,649.000
439.221,655.000
447.568,657.000
455.912,698.000
464.248,921.000
472.582,1296.000
480.909,769.000
489.233,695.000
497.550,670.000
505.862,668.000
514.171,710.000
522.472,658.000
530.771,667.000
539.063,662.000
547.350,655.000
555.634,649.000
563.911,647.000
572.185,649.000
580.452,651.000
588.714,640.000
596.973,647.000
605.226,644.000
613.475,639.000
621.717,648.000
629.957,649.000
638.189,647.000
646.417,649.000
654.641,647.000
662.859,647.000
671.074,644.000
679.282,646.000
687.485,647.000
695.685,659.000
703.878,653.000
712.069,647.000
720.252,644.000
728.433,649.000
736.606,651.000
744.775,646.000
752.941,651.000
761.100,644.000
769.257,649.000
777.406,640.000
785.550,645.000
793.692,645.000
801.827,650.000
809.959,676.000
818.084,675.000
826.207,647.000
834.323,655.000
842.433,647.000
850.541,653.000
858.642,660.000
866.741,653.000
874.832,655.000
882.919,657.000
891.003,656.000
899.080,646.000
907.155,653.000
915.222,659.000
923.287,647.000
931.345,649.000
939.398,655.000
947.449,651.000
955.492,652.000
963.534,647.000
971.568,660.000
979.597,651.000
987.624,643.000
995.644,651.000
1003.662,643.000
1011.672,658.000
1019.680,647.000
1027.681,651.000
1035.677,651.000
1043.671,647.000
1051.658,649.000
1057.646,652.000

File: 2022_12_08_Qtz_355nm_UnPol_11mW_750mm_1200gv_1090wn_iDus_1s_1accum_50x_Mit_UV_Lens.csv
31.856,800.000
40.428,673.000
48.995,788.000
57.556,911.000
66.110,786.000
74.661,657.000
83.207,640.000
91.748,643.000
100.284,639.000
108.814,642.000
117.339,647.000
125.857,637.000
134.372,642.000
142.882,656.000
151.386,768.000
159.885,660.000
168.380,655.000
176.866,649.000
185.350,661.000
193.829,664.000
202.303,654.000
210.771,685.000
219.235,719.000
227.693,779.000
236.144,756.000
244.592,700.000
253.035,677.000
261.472,668.000
269.905,665.000
278.333,652.000
286.755,677.000
295.170,655.000
303.583,648.000
311.990,644.000
320.392,645.000
328.790,649.000
337.182,639.000
345.569,642.000
353.948,646.000
362.325,650.000
370.697,646.000
379.064,672.000
387.426,640.000
395.783,642.000
404.134,645.000
412.479,660.000
420.820,648.000
429.157,650.000
437.489,640.000
445.816,652.000
454.137,641.000
462.452,666.000
470.763,690.000
479.070,867.000
487.372,1196.000
495.669,758.000
503.960,694.000
512.247,678.000
520.527,671.000
528.804,678.000
537.076,664.000
545.343,651.000
553.605,648.000
561.862,646.000
570.114,659.000
578.359,641.000
586.601,649.000
594.839,646.000
603.071,646.000
611.299,649.000
619.522,649.000
627.739,649.000
635.950,639.000
644.158,653.000
652.361,656.000
660.559,646.000
668.752,646.000
676.941,646.000
685.122,641.000
693.301,642.000
701.475,649.000
709.644,655.000
717.808,654.000
725.967,642.000
734.121,644.000
742.269,648.000
750.413,638.000
758.553,650.000
766.688,646.000
774.818,644.000
782.944,650.000
791.064,646.000
799.178,651.000
807.289,651.000
815.395,657.000
823.496,677.000
831.593,665.000
839.685,654.000
847.772,659.000
855.851,651.000
863.929,653.000
872.001,660.000
880.069,648.000
888.132,649.000
896.191,644.000
904.244,649.000
912.291,651.000
920.335,652.000
928.374,649.000
936.409,653.000
944.439,653.000
952.464,652.000
960.482,656.000
968.497,649.000
976.508,645.000
984.515,650.000
992.516,651.000
1000.513,644.000
1008.505,651.000
1016.490,648.000
1024.473,654.000
1032.451,650.000
1040.424,643.000
1048.393,652.000
1056.357,656.000
1064.316,650.000
1072.268,660.000
1080.218,649.000
1088.163,651.000
1096.104,660.000
1104.040,661.000
1111.971,642.000
1119.896,642.000
1127.818,641.000
1135.735,656.000
1143.648,648.000
1151.556,655.000
1159.459,659.000
1167.358,662.000
1175.250,676.000
1183.140,658.000
1191.025,657.000
1198.905,655.000
1206.781,651.000
1214.652,651.000
1222.519,653.000
1230.379,650.000
1238.236,665.000
1246.089,659.000
1253.937,653.000
1261.781,651.000
1269.620,656.000
1277.454,655.000
1285.282,645.000
1293.108,656.000
1300.929,660.000
1308.745,662.000
1316.557,654.000
1324.364,657.000
1332.167,656.000
1339.963,651.000
1347.756,655.000
1355.545,648.000
1363.330,651.000
1371.110,660.000
1378.886,662.000
1386.657,662.000
1394.421,656.000
1402.183,664.000
1409.941,647.000
1417.694,660.000
1425.442,658.000
1433.186,656.000
1440.924,651.000
1448.659,658.000
1456.389,659.000
1464.116,662.000
1471.837,661.000
1479.555,652.000
1487.267,652.000
1494.973,658.000
1502.677,666.000
1510.377,656.000
1518.072,669.000
1525.762,654.000
1533.448,657.000
1541.128,656.000
1548.805,657.000
1556.478,660.000
1564.146,666.000
1571.810,653.000
1579.470,666.000
1587.125,659.000
1594.773,665.000
1602.420,666.000
1610.062,656.000
1617.699,658.000
1625.332,652.000
1632.961,668.000
1640.585,665.000
1648.203,660.000
1655.819,655.000
1663.430,673.000
1671.037,666.000
1678.639,664.000
1686.238,663.000
1693.831,665.000
1701.419,665.000
1709.004,661.000
1716.585,663.000
1724.161,662.000
1731.733,663.000
1739.301,664.000
1746.864,671.000
1754.421,669.000
1761.976,660.000
1769.526,667.000
1777.072,661.000
1784.614,656.000
1792.152,659.000
1799.685,656.000
1807.212,664.000
1814.736,663.000
1822.256,669.000
1829.772,667.000
1837.284,664.000
1844.792,667.000
1852.295,669.000
1859.791,672.000
1867.286,665.000
1874.776,661.000
1882.262,663.000
1889.744,674.000
1897.222,672.000
1904.693,659.000
1912.162,670.000
1919.627,669.000
1927.087,665.000
1934.544,661.000
1941.996,668.000
1949.444,667.000
1956.885,664.000
1964.324,672.000
1971.760,660.000
1979.191,667.000
1986.617,667.000
1994.040,660.000
2001.456,666.000
2008.870,666.000
2016.280,676.000
2023.686,660.000
2031.087,669.000
2038.485,662.000
2045.878,671.000
2053.265,664.000
2060.650,672.000
2066.186,675.000

File: 2022_12_08_Qtz_355nm_UnPol_11mW_750mm_1200gv_1090wn_iDus_10s_1accum_50x_Mit_UV_Lens.csv
31.856,2254.000
40.428,963.000
48.995,2113.000
57.556,3317.000
66.110,2033.000
74.661,848.000
83.207,691.000
91.748,668.000
100.284,686.000
108.814,674.000
117.339,700.000
125.857,682.000
134.372,701.000
142.882,784.000
151.386,1911.000
159.885,832.000
168.380,787.000
176.866,779.000
185.350,763.000
193.829,804.000
202.303,862.000
210.771,1032.000
219.235,1426.000
227.693,2010.000
236.144,1774.000
244.592,1221.000
253.035,1015.000
261.472,898.000
269.905,843.000
278.333,831.000
286.755,1075.000
295.170,757.000
303.583,735.000
311.990,707.000
320.392,705.000
328.790,679.000
337.182,703.000
345.569,695.000
353.948,696.000
362.325,699.000
370.697,745.000
379.064,949.000
387.426,700.000
395.783,699.000
404.134,710.000
412.479,819.000
420.820,758.000
429.157,723.000
437.489,709.000
445.816,794.000
454.137,754.000
462.452,836.000
470.763,1126.000
479.070,3044.000
487.372,6207.000
495.669,1789.000
503.960,1144.000
512.247,1038.000
520.527,977.000
528.804,1151.000
537.076,874.000
545.343,807.000
553.605,758.000
561.862,758.000
570.114,747.000
578.359,743.000
586.601,724.000
594.839,726.000
603.071,716.000
611.299,714.000
619.522,721.000
627.739,718.000
635.950,718.000
644.158,722.000
652.361,712.000
660.559,707.000
668.752,737.000
676.941,714.000
685.122,711.000
693.301,711.000
701.475,725.000
709.644,777.000
717.808,797.000
725.967,739.000
734.121,739.000
742.269,721.000
750.413,719.000
758.553,720.000
766.688,732.000
774.818,725.000
782.944,722.000
791.064,730.000
799.178,738.000
807.289,755.000
815.395,811.000
823.496,1025.000
831.593,863.000
839.685,764.000
847.772,768.000
855.851,756.000
863.929,729.000
872.001,765.000
880.069,739.000
888.132,757.000
896.191,747.000
904.244,750.000
912.291,751.000
920.335,757.000
928.374,749.000
936.409,765.000
944.439,749.000
952.464,743.000
960.482,754.000
968.497,760.000
976.508,751.000
984.515,741.000
992.516,740.000
1000.513,736.000
1008.505,749.000
1016.490,745.000
1024.473,748.000
1032.451,742.000
1040.424,751.000
1048.393,741.000
1056.357,754.000
1064.316,759.000
1072.268,751.000
1080.218,772.000
1088.163,788.000
1096.104,915.000
1104.040,794.000
1111.971,774.000
1119.896,763.000
1127.818,765.000
1135.735,759.000
1143.648,762.000
1151.556,766.000
1159.459,777.000
1167.358,833.000
1175.250,1013.000
1183.140,840.000
1191.025,795.000
1198.905,780.000
1206.781,788.000
1214.652,774.000
1222.519,777.000
1230.379,793.000
1238.236,793.000
1246.089,802.000
1253.937,800.000
1261.781,786.000
1269.620,789.000
1277.454,764.000
1285.282,785.000
1293.108,774.000
1300.929,779.000
1308.745,789.000
1316.557,781.000
1324.364,791.000
1332.167,779.000
1339.963,772.000
1347.756,782.000
1355.545,763.000
1363.330,795.000
1371.110,782.000
1378.886,773.000
1386.657,777.000
1394.421,779.000
1402.183,788.000
1409.941,790.000
1417.694,799.000
1425.442,803.000
1433.186,790.000
1440.924,788.000
1448.659,791.000
1456.389,806.000
1464.116,789.000
1471.837,800.000
1479.555,801.000
1487.267,835.000
1494.973,816.000
1502.677,809.000
1510.377,809.000
1518.072,813.000
1525.762,810.000
1533.448,832.000
1541.128,818.000
1548.805,825.000
1556.478,839.000
1564.146,808.000
1571.810,832.000
1579.470,831.000
1587.125,840.000
1594.773,843.000
1602.420,856.000
1610.062,847.000
1617.699,853.000
1625.332,855.000
1632.961,851.000
1640.585,867.000
1648.203,856.000
1655.819,848.000
1663.430,847.000
1671.037,861.000
1678.639,849.000
1686.238,859.000
1693.831,846.000
1701.419,852.000
1709.004,861.000
1716.585,843.000
1724.161,844.000
1731.733,855.000
1739.301,867.000
1746.864,873.000
1754.421,864.000
1761.976,875.000
1769.526,858.000
1777.072,860.000
1784.614,832.000
1792.152,825.000
1799.685,861.000
1807.212,867.000
1814.736,865.000
1822.256,863.000
1829.772,877.000
1837.284,878.000
1844.792,883.000
1852.295,896.000
1859.791,895.000
1867.286,903.000
1874.776,899.000
1882.262,895.000
1889.744,891.000
1897.222,911.000
1904.693,888.000
1912.162,907.000
1919.627,901.000
1927.087,895.000
1934.544,904.000
1941.996,901.000
1949.444,925.000
1956.885,915.000
1964.324,910.000
1971.760,891.000
1979.191,898.000
1986.617,921.000
1994.040,894.000
2001.456,886.000
2008.870,913.000
2016.280,921.000
2023.686,919.000
2031.087,897.000
2038.485,916.000
2045.878,919.000
2053.265,916.000
2060.650,923.000
2066.186,924.000