Folder: Data/Raman/Silica (part 34)

File: 2025_08_22_BB1392_SiO2_8wtPctH2O_Glass_50X_532nm_750uW_Kymera328_600gv_2100wn_3accum_60s_Unpol.csv
145.788,3610.000,3586.000,3630.000
162.775,3560.000,3572.000,3582.000
179.731,3531.000,3549.000,3521.000
196.656,3514.000,3526.000,3519.000
213.551,3533.000,3517.000,3528.000
230.416,3503.000,3517.000,3531.000
247.248,3511.000,3502.000,3536.000
264.054,3529.000,3514.000,3526.000
280.826,3519.000,3497.000,3534.000
297.569,3543.000,3538.000,3518.000
314.280,3583.000,3585.000,3551.000
330.962,3557.000,3565.000,3601.000
347.615,3584.000,3583.000,3617.000
364.236,3646.000,3641.000,3625.000
380.828,3687.000,3658.000,3663.000
397.389,3690.000,3699.000,3658.000
413.922,3692.000,3701.000,3722.000
430.424,3720.000,3751.000,3755.000
446.897,3779.000,3778.000,3767.000
463.343,3831.000,3829.000,3873.000
479.756,3860.000,3859.000,3867.000
496.141,3757.000,3752.000,3770.000
512.497,3630.000,3583.000,3624.000
528.823,3489.000,3472.000,3484.000
545.120,3412.000,3445.000,3433.000
561.388,3378.000,3386.000,3376.000
577.627,3343.000,3365.000,3360.000
593.836,3342.000,3337.000,3366.000
610.018,3319.000,3316.000,3356.000
626.170,3297.000,3305.000,3299.000
642.294,3302.000,3305.000,3302.000
658.391,3289.000,3302.000,3301.000
674.458,3293.000,3287.000,3280.000
690.496,3317.000,3285.000,3301.000
706.505,3264.000,3294.000,3300.000
722.488,3293.000,3302.000,3273.000
738.441,3297.000,3306.000,3258.000
754.366,3302.000,3292.000,3295.000
770.264,3296.000,3296.000,3312.000
786.132,3331.000,3339.000,3328.000
801.974,3350.000,3348.000,3333.000
817.788,3334.000,3322.000,3321.000
833.573,3267.000,3298.000,3325.000
849.333,3294.000,3312.000,3271.000
865.063,3278.000,3289.000,3287.000
880.766,3293.000,3281.000,3285.000
896.442,3314.000,3289.000,3297.000
912.089,3316.000,3313.000,3317.000
927.710,3320.000,3334.000,3330.000
943.304,3366.000,3351.000,3364.000
958.869,3397.000,3391.000,3399.000
974.409,3391.000,3403.000,3660.000
989.921,3394.000,3357.000,3372.000
1005.405,3338.000,3337.000,3327.000
1020.864,3332.000,3330.000,3325.000
1036.297,3304.000,3307.000,3312.000
1051.701,3307.000,3315.000,3310.000
1067.080,3335.000,3329.000,3349.000
1082.430,3331.000,3338.000,3324.000
1097.755,3307.000,3342.000,3301.000
1113.053,3439.000,3308.000,3315.000
1128.325,3292.000,3309.000,3328.000
1143.571,3322.000,3325.000,3311.000
1158.789,3311.000,3311.000,3322.000
1173.982,3319.000,3300.000,3310.000
1189.148,3314.000,3307.000,3299.000
1204.289,3319.000,3295.000,3297.000
1219.403,3303.000,3300.000,3313.000
1234.494,3286.000,3296.000,3293.000
1249.557,3316.000,3294.000,3293.000
1264.594,3291.000,3292.000,3289.000
1279.605,3295.000,3304.000,3309.000
1294.590,3299.000,3298.000,3310.000
1309.551,3308.000,3291.000,3295.000
1324.485,3286.000,3300.000,3315.000
1339.394,3299.000,3307.000,3302.000
1354.278,3309.000,3320.000,3293.000
1369.136,3313.000,3332.000,3298.000
1383.968,3319.000,3312.000,3327.000
1398.777,3328.000,3332.000,3314.000
1413.560,3314.000,3310.000,3306.000
1428.317,3323.000,3332.000,3297.000
1443.049,3299.000,3314.000,3305.000
1457.757,3313.000,3327.000,3342.000
1472.439,3328.000,3324.000,3323.000
1487.097,3348.000,3322.000,3326.000
1501.729,3338.000,3347.000,3340.000
1516.337,3324.000,3329.000,3338.000
1530.920,3325.000,3335.000,3324.000
1545.479,3356.000,3333.000,3349.000
1560.014,3347.000,3333.000,3351.000
1574.524,3340.000,3348.000,3342.000
1589.010,3345.000,3358.000,3355.000
1603.472,3376.000,3350.000,3368.000
1617.908,3349.000,3366.000,3352.000
1632.320,3363.000,3370.000,3364.000
1646.709,3341.000,3344.000,3346.000
1661.074,3361.000,3366.000,3359.000
1675.414,3373.000,3345.000,3371.000
1689.730,3332.000,3361.000,3356.000
1704.022,3371.000,3356.000,3366.000
1718.291,3351.000,3365.000,3362.000
1732.535,3343.000,3334.000,3347.000
1746.757,3353.000,3370.000,3357.000
1760.955,3325.000,3374.000,3346.000
1775.128,3353.000,3358.000,3362.000
1789.279,3354.000,3363.000,3351.000
1803.406,3366.000,3367.000,3370.000
1817.508,3357.000,3362.000,3381.000
1831.589,3370.000,3719.000,3359.000
1845.645,3333.000,3356.000,3350.000
1859.677,3381.000,3368.000,3380.000
1873.688,3365.000,3379.000,3371.000
1887.674,3412.000,3393.000,3370.000
1901.638,3399.000,3399.000,3392.000
1915.579,3406.000,3361.000,3377.000
1929.496,3408.000,3394.000,3392.000
1943.393,3403.000,3386.000,3403.000
1957.264,3398.000,3414.000,3415.000
1971.113,3392.000,3411.000,3401.000
1984.939,3421.000,3421.000,3380.000
1998.742,3380.000,3402.000,3412.000
2012.524,3400.000,3427.000,3376.000
2026.282,3406.000,3388.000,3390.000
2040.017,3409.000,3408.000,3393.000
2053.731,3409.000,3406.000,3438.000
2067.422,3399.000,3423.000,3435.000
2081.090,3432.000,3420.000,3420.000
2094.737,3423.000,3445.000,3416.000
2108.361,3444.000,3411.000,3416.000
2121.963,3425.000,3435.000,3429.000
2135.543,3431.000,3429.000,3442.000
2149.100,3436.000,3444.000,3426.000
2162.635,3417.000,3432.000,3444.000
2176.149,3414.000,3435.000,3414.000
2189.640,3405.000,3424.000,3428.000
2203.109,3425.000,3451.000,3438.000
2216.558,3456.000,3459.000,3436.000
2229.984,3471.000,3471.000,3442.000
2243.388,3435.000,3452.000,3434.000
2256.770,3424.000,3464.000,3452.000
2270.133,3470.000,3455.000,3454.000
2283.472,3448.000,3445.000,3450.000
2296.790,3450.000,3428.000,3466.000
2310.086,3453.000,3456.000,3473.000
2323.361,3483.000,3478.000,3469.000
2336.615,3478.000,3472.000,3465.000
2349.847,3455.000,3485.000,3495.000
2363.058,3486.000,3484.000,3479.000
2376.248,3500.000,3465.000,3508.000
2389.416,3501.000,3495.000,3504.000
2402.564,3482.000,3466.000,3473.000
2415.692,3503.000,3484.000,3486.000
2428.798,3504.000,3515.000,3502.000
2441.882,3506.000,3516.000,3491.000
2454.946,3513.000,3480.000,3488.000
2467.988,3492.000,3499.000,3503.000
2481.010,3512.000,3507.000,3515.000
2494.012,3515.000,3499.000,3517.000
2506.992,3512.000,3524.000,3493.000
2519.952,3554.000,3528.000,3521.000
2532.892,3484.000,3548.000,3519.000
2545.811,3524.000,3525.000,3544.000
2558.708,3522.000,3529.000,3535.000
2571.586,3554.000,3539.000,3543.000
2584.443,3497.000,3558.000,3560.000
2597.282,3528.000,3516.000,3531.000
2610.099,3547.000,3549.000,3530.000
2622.895,3565.000,3552.000,3540.000
2635.672,3547.000,3537.000,3540.000
2648.427,3534.000,3538.000,3554.000
2661.163,3547.000,3561.000,3557.000
2673.879,3564.000,3551.000,3554.000
2686.575,3558.000,3568.000,3555.000
2699.251,3556.000,3563.000,3582.000
2711.906,3574.000,3557.000,3573.000
2724.544,3572.000,3607.000,3571.000
2737.160,3557.000,3575.000,3573.000
2749.756,3540.000,3576.000,3605.000
2762.334,3575.000,3572.000,3602.000
2774.890,3574.000,3607.000,3581.000
2787.427,3614.000,3593.000,3591.000
2799.945,3566.000,3597.000,3559.000
2812.444,3592.000,3602.000,3584.000
2824.922,3578.000,3598.000,3576.000
2837.381,3602.000,3662.000,3635.000
2849.821,3640.000,3598.000,3606.000
2862.241,3656.000,3611.000,3618.000
2874.642,3630.000,3613.000,3632.000
2887.024,3657.000,3657.000,3648.000
2899.387,3658.000,3653.000,3637.000
2911.731,3672.000,3628.000,3671.000
2924.056,3685.000,3655.000,3659.000
2936.359,3696.000,3652.000,3669.000
2948.646,3693.000,3697.000,3684.000
2960.913,3657.000,3694.000,3710.000
2973.161,3693.000,3692.000,3673.000
2985.390,3735.000,3724.000,3713.000
2997.600,3678.000,3700.000,3685.000
3009.791,3699.000,3708.000,3709.000
3021.964,3717.000,3707.000,3727.000
3034.119,3717.000,3736.000,3730.000
3046.254,3737.000,3723.000,3728.000
3058.371,3723.000,3763.000,3760.000
3070.468,3763.000,3745.000,3746.000
3082.547,3756.000,3768.000,3734.000
3094.607,3787.000,3764.000,3800.000
3106.649,3792.000,3773.000,3782.000
3118.674,3781.000,3746.000,3795.000
3130.679,3803.000,3817.000,3774.000
3142.666,3810.000,3835.000,3854.000
3154.635,3815.000,3804.000,3797.000
3166.585,3829.000,3788.000,3803.000
3178.516,3812.000,3842.000,3854.000
3190.430,3864.000,3840.000,3871.000
3202.328,3884.000,3831.000,3857.000
3214.204,3867.000,3869.000,3875.000
3226.065,3917.000,3896.000,3875.000
3237.905,3901.000,3910.000,3901.000
3249.729,3909.000,3919.000,3895.000
3261.534,3943.000,3890.000,3928.000
3273.322,3974.000,3944.000,3966.000
3285.092,3960.000,3941.000,3922.000
3296.843,3983.000,3964.000,3941.000
3308.578,3949.000,3965.000,3966.000
3320.295,3988.000,3960.000,3935.000
3331.993,3994.000,3990.000,3994.000
3343.675,3972.000,4024.000,3969.000
3355.338,4006.000,4005.000,3996.000
3366.983,4033.000,4000.000,4025.000
3378.612,4011.000,4028.000,4003.000
3390.222,4039.000,4017.000,4032.000
3401.816,4070.000,4017.000,4075.000
3413.391,4080.000,4036.000,4061.000
3424.950,4083.000,4076.000,4081.000
3436.490,4060.000,4074.000,4061.000
3448.014,4047.000,4059.000,4017.000
3459.521,4057.000,4083.000,4077.000
3471.010,4100.000,4066.000,4097.000
3482.482,4094.000,4119.000,4115.000
3493.938,4119.000,4131.000,4113.000
3505.375,4136.000,4114.000,4157.000
3516.796,4137.000,4117.000,4096.000
3528.199,4140.000,4133.000,4177.000
3539.585,4180.000,4163.000,4157.000
3550.956,4194.000,4148.000,4179.000
3562.307,4214.000,4236.000,4233.000
3573.644,4229.000,4250.000,4262.000
3584.963,4282.000,4256.000,4291.000
3596.264,4280.000,4278.000,4293.000
3607.551,4292.000,4295.000,4278.000
3618.820,4260.000,4250.000,4258.000
3630.071,4295.000,4223.000,4257.000
3641.307,4241.000,4211.000,4258.000
3652.524,4248.000,4272.000,4253.000
3663.727,4288.000,4306.000,4268.000
3672.117,4242.000,4259.000,4249.000

File: 2025_08_22_CCl4_300um_In_50X_532nm_12mW_Kymera328_300gv_2000wn_3accum_1s_DePol.csv
-2633.671,3022.000,3019.000,3020.000
-2587.503,3022.000,3018.000,3021.000
-2541.538,3023.000,3018.000,3025.000
-2495.768,3025.000,3021.000,3023.000
-2450.194,3023.000,3021.000,3018.000
-2404.815,3020.000,3023.000,3021.000
-2359.630,3018.000,3023.000,3019.000
-2314.635,3018.000,3018.000,3024.000
-2269.831,3021.000,3019.000,3020.000
-2225.221,3016.000,3019.000,3017.000
-2180.797,3019.000,3023.000,3016.000
-2136.557,3022.000,3017.000,3019.000
-2092.508,3018.000,3018.000,3015.000
-2048.642,3020.000,3019.000,3018.000
-2004.959,3019.000,3023.000,3017.000
-1961.459,3025.000,3020.000,3018.000
-1918.143,3022.000,3018.000,3022.000
-1875.004,3021.000,3020.000,3018.000
-1832.047,3018.000,3022.000,3015.000
-1789.269,3013.000,3020.000,3022.000
-1746.666,3018.000,3020.000,3021.000
-1704.237,3023.000,3019.000,3024.000
-1661.988,3025.000,3021.000,3020.000
-1619.908,3022.000,3022.000,3019.000
-1578.003,3020.000,3023.000,3024.000
-1536.271,3023.000,3023.000,3019.000
-1494.706,3020.000,3022.000,3021.000
-1453.313,3028.000,3021.000,3025.000
-1412.088,3029.000,3027.000,3023.000
-1371.031,3026.000,3033.000,3026.000
-1330.139,3030.000,3029.000,3028.000
-1289.414,3035.000,3033.000,3026.000
-1248.853,3032.000,3034.000,3029.000
-1208.454,3029.000,3029.000,3042.000
-1168.219,3033.000,3031.000,3031.000
-1128.146,3037.000,3041.000,3037.000
-1088.232,3036.000,3039.000,3044.000
-1048.479,3038.000,3046.000,3044.000
-1008.886,3041.000,3042.000,3041.000
-969.447,3044.000,3047.000,3047.000
-930.168,3041.000,3052.000,3048.000
-891.043,3057.000,3047.000,3050.000
-852.072,3063.000,3057.000,3068.000
-813.257,3070.000,3065.000,3067.000
-774.595,3095.000,3096.000,3094.000
-736.085,3116.000,3130.000,3125.000
-697.725,3107.000,3110.000,3112.000
-659.518,3087.000,3083.000,3086.000
-621.457,3090.000,3086.000,3098.000
-583.545,3090.000,3087.000,3089.000
-545.781,3100.000,3097.000,3100.000
-508.167,3188.000,3192.000,3180.000
-470.697,3395.000,3381.000,3366.000
-433.370,3950.000,4001.000,3972.000
-396.191,3686.000,3672.000,3675.000
-359.152,3291.000,3294.000,3275.000
-322.259,3519.000,3507.000,3515.000
-285.508,4226.000,4206.000,4167.000
-248.895,4019.000,4014.000,3992.000
-212.425,4279.000,4306.000,4304.000
-176.091,4578.000,4590.000,4647.000
-139.897,3568.000,3584.000,3550.000
-103.843,3495.000,3478.000,3472.000
-67.925,4605.000,4580.000,4617.000
-32.142,8130.000,8269.000,8162.000
3.504,14857.000,14721.000,14789.000
39.017,16733.000,16751.000,16766.000
74.396,11082.000,11080.000,11112.000
109.639,5298.000,5243.000,5272.000
144.754,3711.000,3704.000,3705.000
179.733,3966.000,3972.000,3976.000
214.582,5531.000,5566.000,5543.000
249.303,7595.000,7591.000,7680.000
283.893,5868.000,5880.000,5832.000
318.354,6886.000,6890.000,7029.000
352.688,7489.000,7527.000,7506.000
386.895,4329.000,4301.000,4293.000
420.971,4579.000,4569.000,4590.000
454.925,7986.000,7981.000,8044.000
488.754,11682.000,11587.000,11586.000
522.458,5904.000,5945.000,5897.000
556.038,3465.000,3451.000,3430.000
589.495,3375.000,3361.000,3370.000
622.828,3363.000,3398.000,3381.000
656.039,3386.000,3395.000,3367.000
689.132,3431.000,3432.000,3437.000
722.100,3685.000,3672.000,3678.000
754.953,4594.000,4619.000,4565.000
787.685,5737.000,5826.000,5833.000
820.297,5476.000,5433.000,5419.000
852.793,4038.000,4046.000,4032.000
885.169,3491.000,3500.000,3491.000
917.429,3440.000,3423.000,3446.000
949.576,3434.000,3458.000,3416.000
981.604,3457.000,3426.000,3460.000
1013.521,3452.000,3446.000,3435.000
1045.321,3492.000,3458.000,3463.000
1077.007,3473.000,3449.000,3471.000
1108.582,3502.000,3486.000,3470.000
1140.044,3500.000,3483.000,3469.000
1171.394,3480.000,3478.000,3508.000
1202.634,3513.000,3502.000,3508.000
1233.764,3523.000,3499.000,3501.000
1264.780,3505.000,3500.000,3485.000
1295.690,3511.000,3526.000,3483.000
1326.492,3493.000,3520.000,3498.000
1357.183,3510.000,3529.000,3539.000
1387.768,3512.000,3497.000,3528.000
1418.247,3547.000,3543.000,3545.000
1448.617,3543.000,3573.000,3534.000
1478.882,3585.000,3595.000,3576.000
1509.041,3700.000,3721.000,3699.000
1539.096,3872.000,3843.000,3847.000
1569.048,3836.000,3855.000,3833.000
1598.895,3725.000,3715.000,3699.000
1628.637,3634.000,3627.000,3625.000
1658.279,3589.000,3605.000,3585.000
1687.817,3590.000,3603.000,3588.000
1717.252,3583.000,3575.000,3601.000
1746.589,3585.000,3587.000,3578.000
1775.826,3595.000,3596.000,3590.000
1804.960,3605.000,3583.000,3608.000
1833.996,3644.000,3606.000,3610.000
1862.933,3606.000,3610.000,3604.000
1891.769,3589.000,3621.000,3622.000
1920.510,3632.000,3602.000,3614.000
1949.153,3646.000,3633.000,3628.000
1977.697,3636.000,3631.000,3606.000
2006.148,3606.000,3646.000,3617.000
2034.499,3608.000,3648.000,3644.000
2062.757,3636.000,3641.000,3631.000
2090.918,3599.000,3634.000,3629.000
2118.984,3619.000,3657.000,3638.000
2146.958,3637.000,3657.000,3641.000
2174.839,3646.000,3625.000,3631.000
2202.624,3660.000,3647.000,3651.000
2230.317,3668.000,3658.000,3656.000
2257.920,3661.000,3648.000,3692.000
2285.428,3649.000,3648.000,3659.000
2312.846,3633.000,3672.000,3656.000
2340.175,3691.000,3678.000,3667.000
2367.410,3687.000,3701.000,3694.000
2394.558,3660.000,3687.000,3698.000
2421.614,3700.000,3679.000,3677.000
2448.582,3678.000,3673.000,3671.000
2475.462,3685.000,3689.000,3651.000
2502.254,3646.000,3665.000,3663.000
2528.956,3667.000,3684.000,3671.000
2555.573,3672.000,3671.000,3697.000
2582.103,3685.000,3641.000,3657.000
2608.542,3676.000,3644.000,3680.000
2634.900,3646.000,3670.000,3665.000
2661.171,3638.000,3657.000,3641.000
2687.355,3656.000,3637.000,3675.000
2713.457,3657.000,3652.000,3631.000
2739.474,3640.000,3654.000,3641.000
2765.405,3613.000,3622.000,3652.000
2791.252,3626.000,3649.000,3655.000
2817.019,3639.000,3648.000,3651.000
2842.701,3616.000,3662.000,3648.000
2868.302,3660.000,3644.000,3652.000
2893.820,3665.000,3650.000,3637.000
2919.256,3659.000,3660.000,3676.000
2944.611,3676.000,3679.000,3631.000
2969.885,3630.000,3655.000,3645.000
2995.078,3634.000,3677.000,3632.000
3020.192,3606.000,3629.000,3632.000
3045.228,3618.000,3655.000,3618.000
3070.181,3628.000,3644.000,3628.000
3095.057,3631.000,3609.000,3617.000
3119.854,3616.000,3605.000,3603.000
3144.573,3601.000,3651.000,3606.000
3169.215,3608.000,3607.000,3604.000
3193.777,3595.000,3575.000,3593.000
3218.265,3616.000,3594.000,3601.000
3242.675,3599.000,3593.000,3588.000
3267.007,3595.000,3588.000,3594.000
3291.267,3597.000,3599.000,3586.000
3315.447,3578.000,3571.000,3608.000
3339.553,3554.000,3552.000,3597.000
3363.585,3587.000,3598.000,3562.000
3387.543,3573.000,3610.000,3575.000
3411.425,3570.000,3569.000,3539.000
3435.233,3546.000,3534.000,3547.000
3458.969,3547.000,3532.000,3527.000
3482.630,3515.000,3513.000,3557.000
3506.219,3541.000,3542.000,3520.000
3529.738,3536.000,3543.000,3539.000
3553.180,3505.000,3526.000,3503.000
3576.554,3543.000,3533.000,3541.000
3599.853,3511.000,3533.000,3529.000
3623.083,3525.000,3499.000,3522.000
3646.243,3513.000,3520.000,3512.000
3669.331,3506.000,3527.000,3483.000
3692.348,3529.000,3530.000,3501.000
3715.297,3498.000,3498.000,3492.000
3738.176,3486.000,3512.000,3495.000
3760.983,3474.000,3476.000,3468.000
3783.723,3479.000,3475.000,3470.000
3806.395,3504.000,3491.000,3485.000
3828.997,3495.000,3474.000,3450.000
3851.533,3452.000,3484.000,3440.000
3874.000,3461.000,3470.000,3457.000
3896.401,3470.000,3432.000,3429.000
3918.733,3481.000,3460.000,3455.000
3940.998,3467.000,3445.000,3449.000
3963.197,3446.000,3448.000,3466.000
3985.330,3446.000,3463.000,3446.000
4007.397,3454.000,3442.000,3433.000
4029.397,3433.000,3420.000,3429.000
4051.335,3433.000,3451.000,3436.000
4073.204,3439.000,3407.000,3427.000
4095.011,3417.000,3433.000,3393.000
4116.753,3421.000,3412.000,3425.000
4138.430,3386.000,3433.000,3395.000
4160.044,3400.000,3421.000,3412.000
4181.594,3402.000,3385.000,3366.000
4203.079,3404.000,3404.000,3420.000
4224.503,3378.000,3363.000,3414.000
4245.864,3375.000,3396.000,3385.000
4267.161,3393.000,3358.000,3381.000
4288.398,3394.000,3394.000,3384.000
4309.573,3384.000,3372.000,3374.000
4330.682,3366.000,3372.000,3390.000
4351.733,3378.000,3368.000,3349.000
4372.724,3359.000,3351.000,3365.000
4393.652,3336.000,3369.000,3363.000
4414.521,3356.000,3356.000,3351.000
4435.329,3354.000,3335.000,3345.000
4456.075,3339.000,3335.000,3339.000
4476.762,3330.000,3353.000,3353.000
4497.391,3337.000,3362.000,3334.000
4517.959,3359.000,3323.000,3342.000
4538.469,3314.000,3335.000,3340.000
4558.920,3317.000,3319.000,3337.000
4579.311,3311.000,3306.000,3312.000
4599.647,3323.000,3301.000,3316.000
4619.922,3306.000,3313.000,3323.000
4640.138,3326.000,3321.000,3299.000
4660.299,3311.000,3309.000,3303.000
4680.403,3298.000,3287.000,3292.000
4700.449,3308.000,3285.000,3269.000
4720.437,3274.000,3279.000,3292.000
4740.371,3291.000,3283.000,3277.000
4760.245,3279.000,3262.000,3281.000
4780.066,3290.000,3264.000,3274.000
4799.829,3284.000,3266.000,3268.000
4819.538,3267.000,3269.000,3263.000
4839.192,3273.000,3269.000,3260.000
4858.787,3271.000,3266.000,3241.000
4878.332,3255.000,3249.000,3253.000
4897.820,3255.000,3244.000,3231.000
4917.252,3258.000,3236.000,3245.000
4936.633,3234.000,3243.000,3244.000
4955.958,3236.000,3245.000,3237.000
4975.229,3233.000,3239.000,3227.000
4989.649,3240.000,3229.000,3249.000