Folder: Data/Raman/Silica (part 40)

File: 2025_08_22_Glass_Slide_50X_532nm_74mW_Andor750_600gv_4000wn_3accum_5s_UnPol.csv
3314.254,1437.000,1390.000,1415.000
3319.475,1462.000,1454.000,1440.000
3324.692,1422.000,1460.000,1459.000
3329.906,1483.000,1466.000,1483.000
3335.116,1484.000,1479.000,1441.000
3340.323,1464.000,1468.000,1480.000
3345.526,1457.000,1464.000,1454.000
3350.726,1456.000,1456.000,1481.000
3355.921,1485.000,1495.000,1463.000
3361.115,1453.000,1487.000,1450.000
3366.305,1498.000,1477.000,1436.000
3371.490,1484.000,1477.000,1477.000
3376.673,1504.000,1542.000,1518.000
3381.851,1510.000,1493.000,1492.000
3387.028,1519.000,1520.000,1532.000
3392.198,1519.000,1561.000,1549.000
3397.368,1545.000,1497.000,1510.000
3402.532,1469.000,1508.000,1528.000
3407.694,1542.000,1563.000,1559.000
3412.852,1580.000,1516.000,1536.000
3418.006,1503.000,1518.000,1520.000
3423.158,1569.000,1554.000,1542.000
3428.305,1538.000,1551.000,1594.000
3433.449,1526.000,1572.000,1571.000
3438.590,1522.000,1569.000,1558.000
3443.728,1556.000,1527.000,1548.000
3448.860,1587.000,1573.000,1575.000
3453.992,1576.000,1582.000,1522.000
3459.120,1579.000,1571.000,1554.000
3464.242,1583.000,1574.000,1584.000
3469.364,1595.000,1568.000,1549.000
3474.480,1587.000,1602.000,1560.000
3479.593,1600.000,1560.000,1591.000
3484.702,1618.000,1606.000,1577.000
3489.810,1645.000,1597.000,1615.000
3494.912,1626.000,1609.000,1609.000
3500.012,1602.000,1575.000,1592.000
3505.110,1596.000,1609.000,1573.000
3510.202,1547.000,1596.000,1617.000
3515.292,1639.000,1611.000,1607.000
3520.378,1647.000,1643.000,1619.000
3525.461,1625.000,1642.000,1638.000
3530.540,1635.000,1596.000,1638.000
3535.617,1656.000,1620.000,1619.000
3540.688,1648.000,1622.000,1641.000
3545.758,1641.000,1615.000,1648.000
3550.825,1616.000,1644.000,1656.000
3555.887,1642.000,1667.000,1656.000
3560.946,1647.000,1694.000,1643.000
3566.001,1650.000,1653.000,1663.000
3571.055,1708.000,1670.000,1636.000
3576.102,1686.000,1718.000,1725.000
3581.149,1684.000,1676.000,1688.000
3586.191,1700.000,1751.000,1673.000
3591.231,1720.000,1672.000,1694.000
3596.267,1692.000,1739.000,1721.000
3601.298,1744.000,1673.000,1719.000
3606.329,1691.000,1720.000,1698.000
3611.353,1746.000,1757.000,1716.000
3616.376,1697.000,1739.000,1695.000
3621.395,1720.000,1723.000,1726.000
3626.411,1709.000,1720.000,1711.000
3631.423,1712.000,1727.000,1734.000
3636.434,1765.000,1735.000,1723.000
3641.439,1779.000,1765.000,1747.000
3646.442,1748.000,1725.000,1780.000
3651.441,1776.000,1786.000,1749.000
3656.436,1739.000,1775.000,1748.000
3661.430,1786.000,1795.000,1819.000
3666.419,1803.000,1756.000,1776.000
3671.405,1821.000,1780.000,1796.000
3676.387,1776.000,1732.000,1794.000
3681.367,1823.000,1845.000,1800.000
3686.344,1766.000,1806.000,1786.000
3691.316,1816.000,1835.000,1800.000
3696.287,1840.000,1824.000,1822.000
3701.252,1833.000,1812.000,1807.000
3706.216,1843.000,1816.000,1800.000
3711.176,1789.000,1778.000,1853.000
3716.133,1787.000,1809.000,1807.000
3721.086,1806.000,1831.000,1855.000
3726.036,1854.000,1840.000,1823.000
3730.984,1853.000,1833.000,1823.000
3735.927,1832.000,1865.000,1844.000
3740.867,1858.000,1855.000,1840.000
3745.803,1858.000,1847.000,1841.000
3750.738,1848.000,1867.000,1836.000
3755.668,1824.000,1853.000,1831.000
3760.596,1853.000,1873.000,1856.000
3765.522,1866.000,1874.000,1873.000
3770.442,1882.000,1862.000,1883.000
3775.360,1918.000,1911.000,1907.000
3780.274,1874.000,1910.000,1875.000
3785.186,1885.000,1832.000,1859.000
3790.094,1883.000,1858.000,1855.000
3794.998,1884.000,1863.000,1867.000
3799.899,1910.000,1862.000,1941.000
3804.799,1918.000,1931.000,1913.000
3809.694,1874.000,1918.000,1907.000
3814.586,1850.000,1874.000,1915.000
3819.476,1917.000,1872.000,1874.000
3824.360,1894.000,1893.000,1890.000
3829.244,1940.000,1894.000,1934.000
3834.123,1931.000,1916.000,1951.000
3839.000,1897.000,1922.000,1943.000
3843.872,1959.000,1927.000,1921.000
3848.742,1936.000,1914.000,1956.000
3853.610,1952.000,1950.000,1951.000
3858.472,1957.000,1890.000,1924.000
3863.333,1939.000,1962.000,1949.000
3868.190,1986.000,1941.000,1947.000
3873.044,1968.000,1975.000,1931.000
3877.894,1960.000,2013.000,1973.000
3882.743,1958.000,1947.000,1962.000
3887.587,1931.000,1950.000,1924.000
3892.428,1943.000,1946.000,1994.000
3897.268,1994.000,1968.000,1978.000
3902.101,1959.000,1981.000,1948.000
3906.934,1980.000,1983.000,1982.000
3911.763,2006.000,1998.000,1996.000
3916.589,1978.000,1983.000,1980.000
3921.411,1974.000,1972.000,2023.000
3926.231,1987.000,1999.000,2016.000
3931.047,1994.000,1999.000,1934.000
3935.861,1992.000,1997.000,2002.000
3940.671,1983.000,2005.000,2017.000
3945.478,2022.000,1947.000,2030.000
3950.282,2020.000,1985.000,1986.000
3955.082,2014.000,1985.000,2027.000
3959.881,1982.000,2009.000,2007.000
3964.673,2053.000,2029.000,2086.000
3969.466,2011.000,2062.000,2034.000
3974.253,2018.000,2060.000,2025.000
3979.039,2016.000,2040.000,2001.000
3983.823,2084.000,2035.000,2036.000
3988.600,2071.000,2057.000,2074.000
3993.378,2072.000,2078.000,2028.000
3998.150,2030.000,2079.000,2075.000
4002.921,2096.000,2050.000,2092.000
4007.687,2040.000,2054.000,2095.000
4012.450,2092.000,2081.000,2027.000
4017.211,2115.000,2025.000,2111.000
4021.968,2088.000,2061.000,2066.000
4026.724,2060.000,2084.000,2079.000
4031.475,2086.000,2104.000,2094.000
4036.224,2079.000,2009.000,2071.000
4040.969,2124.000,2086.000,2088.000
4045.711,2091.000,2072.000,2093.000
4050.449,2139.000,2113.000,2103.000
4055.186,2110.000,2127.000,2103.000
4059.920,2109.000,2121.000,2110.000
4064.650,2144.000,2085.000,2129.000
4069.377,2152.000,2122.000,2156.000
4074.102,2105.000,2089.000,2117.000
4078.823,2134.000,2161.000,2165.000
4083.541,2131.000,2125.000,2119.000
4088.255,2109.000,2129.000,2077.000
4092.967,2094.000,2083.000,2134.000
4097.677,2124.000,2146.000,2080.000
4102.382,2174.000,2189.000,2115.000
4107.086,2124.000,2166.000,2142.000
4111.786,2127.000,2201.000,2165.000
4116.483,2160.000,2183.000,2140.000
4121.176,2138.000,2133.000,2180.000
4125.867,2187.000,2154.000,2142.000
4130.556,2134.000,2145.000,2126.000
4135.239,2175.000,2157.000,2140.000
4139.923,2177.000,2162.000,2175.000
4144.600,2176.000,2119.000,2187.000
4149.277,2196.000,2160.000,2161.000
4153.951,2176.000,2183.000,2171.000
4158.620,2144.000,2215.000,2209.000
4163.287,2209.000,2195.000,2178.000
4167.951,2249.000,2168.000,2158.000
4172.612,2168.000,2172.000,2155.000
4177.270,2167.000,2178.000,2214.000
4181.925,2203.000,2171.000,2164.000
4186.577,2225.000,2230.000,2180.000
4191.227,2167.000,2171.000,2198.000
4195.874,2182.000,2210.000,2196.000
4200.516,2218.000,2201.000,2138.000
4205.157,2146.000,2228.000,2172.000
4209.794,2198.000,2183.000,2184.000
4214.429,2169.000,2207.000,2160.000
4219.060,2168.000,2201.000,2172.000
4223.689,2196.000,2147.000,2200.000
4228.313,2211.000,2211.000,2219.000
4232.937,2227.000,2215.000,2210.000
4237.558,2246.000,2233.000,2175.000
4242.174,2251.000,2157.000,2194.000
4246.789,2208.000,2222.000,2173.000
4251.399,2171.000,2158.000,2164.000
4256.007,2224.000,2185.000,2202.000
4260.612,2246.000,2182.000,2236.000
4265.215,2230.000,2258.000,2238.000
4269.813,2222.000,2220.000,2235.000
4274.410,2201.000,2195.000,2235.000
4279.004,2184.000,2272.000,2196.000
4283.594,2257.000,2231.000,2218.000
4288.182,2185.000,2205.000,2196.000
4292.767,2235.000,2222.000,2216.000
4297.349,2208.000,2254.000,2192.000
4301.928,2179.000,2242.000,2220.000
4306.504,2190.000,2250.000,2243.000
4311.077,2230.000,2213.000,2210.000
4315.647,2198.000,2239.000,2213.000
4320.215,2183.000,2256.000,2263.000
4324.779,2257.000,2242.000,2196.000
4329.341,2222.000,2187.000,2216.000
4333.900,2251.000,2216.000,2218.000
4338.456,2228.000,2277.000,2271.000
4343.008,2278.000,2252.000,2290.000
4347.559,2202.000,2222.000,2285.000
4352.106,2217.000,2253.000,2227.000
4356.651,2232.000,2226.000,2218.000
4361.193,2211.000,2207.000,2239.000
4365.731,2244.000,2218.000,2214.000
4370.268,2249.000,2244.000,2249.000
4374.800,2274.000,2237.000,2240.000
4379.331,2248.000,2257.000,2246.000
4383.857,2202.000,2204.000,2261.000
4388.382,2266.000,2248.000,2236.000
4392.904,2247.000,2270.000,2253.000
4397.423,2182.000,2250.000,2237.000
4401.940,2269.000,2231.000,2230.000
4406.452,2274.000,2212.000,2216.000
4410.963,2276.000,2240.000,2247.000
4415.470,2240.000,2231.000,2260.000
4419.975,2221.000,2258.000,2255.000
4424.477,2233.000,2253.000,2241.000
4428.976,2237.000,2206.000,2255.000
4433.472,2210.000,2301.000,2249.000
4437.966,2226.000,2232.000,2224.000
4442.457,2220.000,2231.000,2219.000
4446.944,2229.000,2256.000,2265.000
4451.429,2240.000,2242.000,2229.000
4455.911,2232.000,2242.000,2235.000
4460.391,2200.000,2229.000,2227.000
4464.867,2233.000,2221.000,2208.000
4469.341,2274.000,2202.000,2271.000
4473.811,2249.000,2236.000,2201.000
4478.280,2233.000,2159.000,2216.000
4482.746,2270.000,2268.000,2245.000
4487.208,2192.000,2201.000,2236.000
4491.669,2241.000,2246.000,2269.000
4496.126,2196.000,2244.000,2260.000
4500.580,2237.000,2269.000,2178.000
4505.032,2237.000,2190.000,2164.000
4509.481,2190.000,2208.000,2205.000
4513.926,2157.000,2133.000,2173.000
4518.369,2214.000,2196.000,2194.000
4522.810,2187.000,2196.000,2158.000
4527.248,2229.000,2205.000,2224.000
4531.684,2180.000,2221.000,2202.000
4536.114,2125.000,2156.000,2208.000
4540.545,2198.000,2185.000,2204.000
4543.865,2143.000,2146.000,2179.000

File: 2025_08_22_Nat_Qtz_50X_532nm_6mW_Andor750_600gv_400wn_3accum_30s_UnPol.csv
-683.222,643.000,652.000,649.000
-674.869,643.000,645.000,649.000
-666.520,645.000,646.000,642.000
-658.182,647.000,651.000,653.000
-649.848,644.000,646.000,643.000
-641.523,649.000,640.000,645.000
-633.206,636.000,644.000,652.000
-624.893,649.000,650.000,647.000
-616.591,648.000,647.000,649.000
-608.291,647.000,650.000,646.000
-600.003,650.000,644.000,643.000
-591.721,642.000,649.000,648.000
-583.444,644.000,648.000,648.000
-575.176,649.000,650.000,654.000
-566.913,648.000,646.000,651.000
-558.659,651.000,649.000,651.000
-550.413,649.000,648.000,643.000
-542.171,655.000,651.000,650.000
-533.938,651.000,650.000,653.000
-525.710,652.000,646.000,648.000
-517.492,651.000,650.000,653.000
-509.280,654.000,643.000,658.000
-501.073,655.000,653.000,656.000
-492.876,651.000,657.000,662.000
-484.685,663.000,662.000,661.000
-476.499,667.000,666.000,652.000
-468.322,684.000,690.000,683.000
-460.151,725.000,718.000,729.000
-451.988,1115.000,1078.000,1091.000
-443.832,853.000,854.000,860.000
-435.680,700.000,705.000,692.000
-427.538,665.000,656.000,663.000
-419.399,657.000,652.000,650.000
-411.271,662.000,658.000,648.000
-403.150,652.000,657.000,652.000
-395.033,649.000,650.000,649.000
-386.925,687.000,676.000,683.000
-378.822,648.000,655.000,657.000
-370.727,660.000,650.000,651.000
-362.640,657.000,661.000,649.000
-354.557,654.000,653.000,655.000
-346.484,663.000,654.000,654.000
-338.415,665.000,653.000,657.000
-330.355,651.000,658.000,659.000
-322.302,655.000,656.000,650.000
-314.253,645.000,659.000,658.000
-306.214,653.000,656.000,656.000
-298.179,659.000,658.000,650.000
-290.152,651.000,653.000,647.000
-282.132,645.000,650.000,660.000
-274.118,659.000,646.000,662.000
-266.112,659.000,663.000,660.000
-258.110,686.000,671.000,669.000
-250.118,744.000,743.000,765.000
-242.132,682.000,686.000,691.000
-234.150,695.000,684.000,692.000
-226.178,697.000,702.000,710.000
-218.209,733.000,750.000,751.000
-210.250,812.000,818.000,831.000
-202.298,971.000,991.000,971.000
-194.350,1151.000,1120.000,1138.000
-186.411,977.000,1007.000,985.000
-178.478,811.000,811.000,827.000
-170.550,749.000,737.000,737.000
-162.630,722.000,707.000,717.000
-154.715,691.000,687.000,693.000
-146.810,695.000,691.000,695.000
-138.910,721.000,722.000,713.000
-131.015,720.000,717.000,708.000
-123.128,779.000,772.000,790.000
-115.247,1277.000,1248.000,1232.000
-107.374,724.000,722.000,720.000
-99.506,688.000,673.000,684.000
-91.645,679.000,667.000,660.000
-83.792,688.000,686.000,674.000
-75.942,668.000,670.000,677.000
-68.101,663.000,666.000,666.000
-60.268,687.000,677.000,684.000
-52.437,670.000,679.000,676.000
-44.617,670.000,674.000,676.000
-36.799,671.000,687.000,681.000
-28.991,688.000,680.000,685.000
-21.190,688.000,687.000,681.000
-13.393,706.000,701.000,705.000
-5.605,990.000,987.000,968.000
2.180,3655.000,3668.000,3747.000
9.955,1749.000,1733.000,1727.000
17.725,3520.000,3543.000,3525.000
25.490,750.000,753.000,746.000
33.247,694.000,693.000,681.000
40.999,684.000,675.000,674.000
48.743,672.000,674.000,688.000
56.480,702.000,692.000,687.000
64.213,671.000,685.000,667.000
71.937,689.000,677.000,677.000
79.658,686.000,701.000,696.000
87.369,677.000,674.000,668.000
95.075,684.000,676.000,677.000
102.776,695.000,700.000,697.000
110.470,679.000,683.000,675.000
118.155,697.000,697.000,702.000
125.838,765.000,753.000,769.000
133.512,1563.000,1584.000,1581.000
141.181,965.000,958.000,964.000
148.842,790.000,782.000,795.000
156.497,768.000,772.000,774.000
164.147,743.000,740.000,749.000
171.790,743.000,753.000,759.000
179.428,791.000,787.000,807.000
187.058,844.000,857.000,845.000
194.682,988.000,983.000,1008.000
202.301,1321.000,1295.000,1326.000
209.913,1789.000,1764.000,1817.000
217.519,1718.000,1727.000,1759.000
225.118,1312.000,1309.000,1273.000
232.710,1004.000,1023.000,1005.000
240.298,885.000,891.000,861.000
247.879,823.000,816.000,796.000
255.454,768.000,773.000,774.000
263.022,784.000,787.000,785.000
270.584,1061.000,1051.000,1040.000
278.141,739.000,737.000,733.000
285.690,706.000,698.000,696.000
293.236,685.000,692.000,687.000
300.772,686.000,685.000,680.000
308.303,692.000,681.000,683.000
315.830,674.000,679.000,680.000
323.348,676.000,676.000,678.000
330.862,681.000,669.000,676.000
338.369,672.000,667.000,676.000
345.868,681.000,663.000,669.000
353.365,673.000,676.000,673.000
360.853,810.000,817.000,810.000
368.336,693.000,699.000,702.000
375.813,671.000,681.000,690.000
383.282,686.000,683.000,677.000
390.748,681.000,684.000,682.000
398.206,701.000,709.000,704.000
405.659,822.000,830.000,826.000
413.105,698.000,707.000,692.000
420.544,704.000,684.000,699.000
427.980,702.000,697.000,702.000
435.408,719.000,714.000,709.000
442.831,745.000,739.000,751.000
450.246,874.000,858.000,876.000
457.656,1175.000,1167.000,1158.000
465.061,3240.000,3206.000,3177.000
472.459,4045.000,4036.000,3985.000
479.851,1452.000,1448.000,1481.000
487.238,1011.000,1004.000,1006.000
494.618,873.000,853.000,849.000
501.994,795.000,798.000,794.000
509.362,751.000,771.000,764.000
516.724,744.000,750.000,739.000
524.082,736.000,748.000,742.000
531.432,738.000,744.000,753.000
538.778,724.000,707.000,708.000
546.115,694.000,699.000,710.000
553.448,698.000,696.000,710.000
560.777,691.000,691.000,692.000
568.097,688.000,698.000,707.000
575.414,689.000,684.000,687.000
582.722,684.000,682.000,693.000
590.025,682.000,937.000,689.000
597.324,689.000,707.000,691.000
604.615,688.000,691.000,691.000
611.903,691.000,689.000,682.000
619.182,677.000,681.000,681.000
626.456,689.000,697.000,679.000
633.726,678.000,692.000,682.000
640.988,694.000,669.000,679.000
648.247,684.000,679.000,679.000
655.497,682.000,679.000,672.000
662.741,718.000,687.000,679.000
669.983,678.000,671.000,676.000
677.215,681.000,677.000,684.000
684.444,684.000,684.000,682.000
691.667,690.000,699.000,687.000
698.883,746.000,735.000,733.000
706.095,700.000,705.000,698.000
713.298,685.000,679.000,680.000
720.497,689.000,683.000,677.000
727.692,675.000,674.000,686.000
734.879,690.000,682.000,694.000
742.063,675.000,670.000,679.000
749.238,675.000,674.000,682.000
756.408,677.000,680.000,674.000
763.575,684.000,677.000,681.000
770.734,679.000,689.000,678.000
777.889,688.000,685.000,692.000
785.036,699.000,691.000,701.000
792.178,729.000,734.000,736.000
799.315,814.000,782.000,788.000
806.446,787.000,786.000,786.000
813.573,737.000,743.000,751.000
820.691,691.000,697.000,697.000
827.804,701.000,693.000,689.000
834.914,679.000,691.000,691.000
842.016,693.000,696.000,700.000
849.115,695.000,679.000,699.000
856.206,698.000,691.000,684.000
863.291,685.000,695.000,685.000
870.373,672.000,693.000,693.000
877.447,681.000,691.000,673.000
884.517,689.000,685.000,688.000
891.580,693.000,693.000,692.000
898.637,689.000,678.000,689.000
905.692,685.000,682.000,684.000
912.738,686.000,691.000,685.000
919.781,699.000,679.000,688.000
926.816,676.000,683.000,681.000
933.845,690.000,686.000,688.000
940.872,686.000,685.000,682.000
947.890,686.000,688.000,680.000
954.906,688.000,682.000,684.000
961.913,683.000,682.000,680.000
968.915,680.000,693.000,679.000
975.913,684.000,682.000,682.000
982.905,676.000,678.000,683.000
989.892,673.000,693.000,677.000
996.872,686.000,681.000,675.000
1003.847,682.000,675.000,693.000
1010.817,676.000,680.000,683.000
1017.781,682.000,689.000,684.000
1024.742,682.000,677.000,681.000
1031.694,676.000,693.000,688.000
1038.642,684.000,669.000,691.000
1045.586,693.000,680.000,676.000
1052.522,691.000,685.000,688.000
1059.453,713.000,707.000,703.000
1066.381,749.000,762.000,755.000
1073.301,724.000,707.000,716.000
1080.218,759.000,745.000,744.000
1087.128,723.000,730.000,725.000
1094.031,695.000,693.000,685.000
1100.932,689.000,695.000,694.000
1107.825,688.000,677.000,677.000
1114.716,691.000,701.000,689.000
1121.598,688.000,682.000,677.000
1128.475,690.000,691.000,703.000
1135.349,699.000,688.000,682.000
1142.215,698.000,688.000,692.000
1149.079,706.000,697.000,699.000
1155.935,748.000,749.000,739.000
1162.785,758.000,761.000,758.000
1169.632,697.000,695.000,713.000
1176.473,689.000,695.000,679.000
1183.309,686.000,694.000,693.000
1190.138,693.000,683.000,689.000
1196.962,691.000,694.000,691.000
1203.783,687.000,693.000,694.000
1210.597,700.000,698.000,688.000
1217.407,704.000,702.000,694.000
1224.209,708.000,706.000,705.000
1231.008,709.000,695.000,706.000
1237.802,716.000,703.000,721.000
1242.893,708.000,715.000,699.000