Folder: Data/Raman/Silica (part 118)

File: 2025_09_12_12pct_Hydrated_SiO2_Glass_on_DAC_Culet_50X_532nm_74mW_Andor750_600gv_1030wn_6accum_30s_DePol_Loc2.csv
23.130,2783.000,2754.000,2782.000,2767.000,2747.000,2845.000
34.751,2465.000,2452.000,2439.000,2489.000,2471.000,2437.000
46.355,2523.000,2534.000,2495.000,2511.000,2525.000,2483.000
57.946,2378.000,2371.000,2356.000,2402.000,2382.000,2379.000
69.523,2301.000,2362.000,2376.000,2387.000,2350.000,2363.000
81.084,2104.000,2001.000,2066.000,2040.000,2069.000,2064.000
92.632,1934.000,1973.000,1978.000,1961.000,1974.000,1922.000
104.167,1755.000,1745.000,1751.000,1727.000,1773.000,1712.000
115.685,1795.000,1787.000,1763.000,1745.000,1738.000,1734.000
127.190,1532.000,1520.000,1513.000,1505.000,1550.000,1504.000
138.683,1486.000,1492.000,1496.000,1481.000,1464.000,1489.000
150.158,1350.000,1362.000,1366.000,1333.000,1372.000,1360.000
161.621,1330.000,1383.000,1371.000,1329.000,1290.000,1352.000
173.071,1278.000,1253.000,1274.000,1263.000,1260.000,1240.000
184.504,1221.000,1221.000,1233.000,1234.000,1242.000,1226.000
195.925,1172.000,1202.000,1192.000,1213.000,1204.000,1179.000
207.333,1169.000,1164.000,1190.000,1158.000,1159.000,1159.000
218.724,1169.000,1138.000,1128.000,1101.000,1123.000,1126.000
230.104,1133.000,1130.000,1112.000,1120.000,1110.000,1121.000
241.469,1102.000,1094.000,1092.000,1105.000,1101.000,1083.000
252.819,1081.000,1070.000,1096.000,1085.000,1082.000,1070.000
264.156,1067.000,1068.000,1054.000,1063.000,1077.000,1085.000
275.480,1051.000,1057.000,1059.000,1034.000,1054.000,1051.000
286.790,1071.000,1065.000,1032.000,1050.000,1030.000,1030.000
298.084,1033.000,1030.000,1027.000,1041.000,1019.000,1026.000
309.367,1040.000,1056.000,1051.000,1051.000,1046.000,1032.000
320.635,1031.000,1034.000,1037.000,1019.000,1019.000,1016.000
331.888,1023.000,1029.000,1009.000,996.000,1035.000,1015.000
343.130,1028.000,1016.000,1008.000,1029.000,1014.000,1024.000
354.357,1026.000,1022.000,1013.000,1011.000,1030.000,998.000
365.569,1028.000,1027.000,1027.000,1025.000,1022.000,1006.000
376.770,1047.000,1027.000,1020.000,1025.000,1026.000,1011.000
387.956,1019.000,1048.000,1021.000,1043.000,1000.000,1013.000
399.127,1034.000,1020.000,1034.000,998.000,1011.000,1020.000
410.287,1004.000,1008.000,993.000,1006.000,1004.000,992.000
421.432,1034.000,1025.000,1012.000,1026.000,1017.000,1000.000
432.563,1012.000,1030.000,1017.000,1016.000,1013.000,1014.000
443.683,1020.000,1024.000,997.000,1021.000,994.000,1007.000
454.788,1025.000,1026.000,1029.000,1023.000,1009.000,1016.000
465.879,1041.000,1022.000,983.000,1014.000,1024.000,1019.000
476.957,1029.000,1003.000,1027.000,997.000,997.000,1008.000
488.022,987.000,999.000,1000.000,1002.000,979.000,969.000
499.072,952.000,954.000,966.000,954.000,948.000,940.000
510.111,900.000,901.000,893.000,894.000,901.000,904.000
521.136,860.000,860.000,845.000,863.000,854.000,861.000
532.147,842.000,858.000,857.000,847.000,844.000,833.000
543.145,840.000,839.000,827.000,826.000,853.000,836.000
554.131,833.000,824.000,828.000,824.000,822.000,829.000
565.100,816.000,815.000,807.000,824.000,824.000,804.000
576.060,800.000,816.000,803.000,808.000,786.000,803.000
587.006,819.000,825.000,824.000,791.000,807.000,808.000
597.937,795.000,795.000,795.000,807.000,804.000,799.000
608.856,790.000,811.000,786.000,802.000,793.000,793.000
619.763,795.000,775.000,789.000,796.000,781.000,765.000
630.655,802.000,800.000,790.000,789.000,790.000,787.000
641.535,788.000,808.000,785.000,802.000,788.000,783.000
652.403,786.000,798.000,774.000,780.000,799.000,777.000
663.256,799.000,799.000,799.000,795.000,774.000,779.000
674.097,791.000,794.000,791.000,790.000,793.000,789.000
684.926,791.000,802.000,789.000,799.000,782.000,795.000
695.739,806.000,794.000,783.000,791.000,799.000,788.000
706.542,795.000,890.000,812.000,787.000,782.000,800.000
717.332,802.000,791.000,810.000,789.000,809.000,804.000
728.106,810.000,797.000,804.000,789.000,789.000,799.000
738.871,824.000,802.000,791.000,806.000,806.000,795.000
749.622,816.000,830.000,790.000,809.000,793.000,804.000
760.360,825.000,825.000,829.000,830.000,807.000,828.000
771.085,861.000,856.000,853.000,856.000,872.000,850.000
781.797,895.000,884.000,907.000,893.000,903.000,910.000
792.498,913.000,930.000,900.000,915.000,913.000,930.000
803.184,891.000,892.000,886.000,907.000,906.000,882.000
813.859,889.000,879.000,878.000,867.000,880.000,878.000
824.520,863.000,873.000,856.000,870.000,854.000,853.000
835.169,863.000,844.000,845.000,839.000,840.000,825.000
845.806,812.000,817.000,826.000,812.000,809.000,797.000
856.430,801.000,807.000,814.000,800.000,799.000,799.000
867.040,808.000,798.000,796.000,796.000,794.000,805.000
877.640,807.000,805.000,809.000,808.000,795.000,786.000
888.226,801.000,798.000,804.000,792.000,811.000,788.000
898.798,819.000,799.000,796.000,806.000,798.000,792.000
909.360,813.000,796.000,800.000,818.000,797.000,797.000
919.909,832.000,813.000,802.000,815.000,811.000,812.000
930.444,824.000,831.000,831.000,826.000,822.000,816.000
940.968,825.000,2341.000,851.000,844.000,827.000,836.000
951.481,858.000,835.000,846.000,857.000,847.000,837.000
961.979,878.000,876.000,864.000,862.000,863.000,845.000
972.466,875.000,870.000,878.000,860.000,860.000,858.000
982.941,856.000,875.000,836.000,859.000,865.000,855.000
993.402,851.000,854.000,845.000,823.000,840.000,827.000
1003.852,843.000,835.000,819.000,840.000,810.000,827.000
1014.290,832.000,832.000,835.000,834.000,819.000,810.000
1024.714,829.000,825.000,827.000,826.000,827.000,826.000
1035.128,843.000,836.000,829.000,835.000,832.000,815.000
1045.530,875.000,851.000,843.000,833.000,856.000,839.000
1055.917,876.000,860.000,861.000,859.000,842.000,840.000
1066.294,839.000,845.000,853.000,869.000,838.000,849.000
1076.660,831.000,840.000,831.000,825.000,845.000,827.000
1087.011,822.000,828.000,823.000,817.000,810.000,821.000
1097.351,812.000,798.000,808.000,803.000,809.000,792.000
1107.681,812.000,807.000,809.000,809.000,791.000,792.000
1117.995,827.000,809.000,797.000,803.000,799.000,809.000
1128.300,822.000,818.000,820.000,786.000,798.000,812.000
1138.593,816.000,813.000,825.000,824.000,817.000,808.000
1148.872,838.000,813.000,819.000,823.000,811.000,800.000
1159.141,823.000,840.000,825.000,825.000,839.000,811.000
1169.397,837.000,844.000,822.000,813.000,811.000,824.000
1179.641,829.000,841.000,808.000,845.000,820.000,825.000
1189.874,845.000,829.000,835.000,815.000,836.000,833.000
1200.095,846.000,817.000,826.000,822.000,813.000,823.000
1210.302,825.000,831.000,816.000,821.000,819.000,806.000
1220.499,824.000,831.000,823.000,808.000,803.000,808.000
1230.685,832.000,830.000,821.000,817.000,823.000,792.000
1240.858,835.000,819.000,811.000,806.000,808.000,813.000
1251.020,828.000,814.000,814.000,815.000,799.000,789.000
1261.170,818.000,817.000,820.000,801.000,807.000,807.000
1271.308,824.000,833.000,801.000,812.000,812.000,805.000
1281.433,818.000,811.000,804.000,807.000,793.000,798.000
1291.548,820.000,819.000,804.000,796.000,800.000,811.000
1301.652,837.000,834.000,845.000,846.000,828.000,842.000
1311.742,901.000,899.000,915.000,916.000,895.000,912.000
1321.822,1732.000,1728.000,1740.000,1727.000,1753.000,1742.000
1331.891,4552.000,4585.000,4514.000,4618.000,4518.000,4624.000
1341.946,928.000,919.000,956.000,922.000,950.000,930.000
1351.991,850.000,836.000,834.000,844.000,836.000,819.000
1362.025,807.000,824.000,830.000,814.000,808.000,818.000
1372.045,810.000,819.000,799.000,807.000,802.000,791.000
1382.057,802.000,821.000,809.000,796.000,797.000,791.000
1392.056,804.000,811.000,789.000,810.000,793.000,791.000
1402.042,811.000,805.000,803.000,791.000,788.000,808.000
1412.017,810.000,805.000,805.000,795.000,820.000,788.000
1421.982,809.000,801.000,804.000,795.000,796.000,790.000
1431.935,835.000,803.000,798.000,791.000,806.000,806.000
1441.877,813.000,817.000,815.000,796.000,796.000,793.000
1451.807,819.000,814.000,801.000,800.000,791.000,782.000
1461.725,803.000,802.000,803.000,788.000,792.000,790.000
1471.632,799.000,806.000,805.000,780.000,796.000,788.000
1481.530,820.000,814.000,789.000,809.000,793.000,788.000
1491.414,825.000,803.000,802.000,808.000,793.000,799.000
1501.287,823.000,807.000,805.000,811.000,805.000,799.000
1511.151,802.000,808.000,805.000,796.000,794.000,801.000
1521.001,806.000,816.000,808.000,814.000,811.000,802.000
1530.840,820.000,802.000,787.000,794.000,798.000,811.000
1540.670,806.000,803.000,814.000,802.000,807.000,783.000
1550.486,822.000,815.000,804.000,815.000,810.000,805.000
1560.293,815.000,821.000,801.000,819.000,808.000,803.000
1570.088,822.000,810.000,823.000,816.000,806.000,807.000
1579.872,836.000,808.000,801.000,806.000,797.000,794.000
1589.645,845.000,836.000,813.000,803.000,816.000,805.000
1599.408,837.000,834.000,835.000,804.000,831.000,831.000
1609.158,829.000,823.000,846.000,827.000,819.000,802.000
1618.898,839.000,835.000,824.000,819.000,819.000,813.000
1628.627,832.000,824.000,826.000,805.000,816.000,803.000
1638.345,818.000,815.000,819.000,824.000,807.000,819.000
1648.050,832.000,814.000,822.000,820.000,806.000,808.000
1657.747,817.000,807.000,804.000,813.000,831.000,808.000
1667.431,816.000,813.000,811.000,818.000,817.000,803.000
1677.104,824.000,813.000,820.000,807.000,806.000,807.000
1686.768,821.000,811.000,805.000,822.000,808.000,794.000
1696.420,801.000,832.000,819.000,803.000,808.000,830.000
1706.060,809.000,809.000,823.000,808.000,801.000,792.000
1715.691,819.000,807.000,815.000,830.000,806.000,787.000
1725.311,826.000,816.000,772.000,802.000,798.000,799.000
1734.918,820.000,807.000,805.000,821.000,810.000,808.000
1744.517,805.000,818.000,815.000,782.000,813.000,813.000
1754.104,813.000,804.000,815.000,801.000,809.000,816.000
1763.679,843.000,820.000,810.000,815.000,810.000,800.000
1773.245,836.000,816.000,816.000,819.000,804.000,806.000
1782.800,830.000,814.000,814.000,808.000,821.000,822.000
1792.343,819.000,821.000,821.000,815.000,810.000,815.000
1801.877,823.000,827.000,826.000,822.000,1159.000,829.000
1811.400,854.000,819.000,831.000,816.000,827.000,812.000
1816.157,834.000,839.000,832.000,836.000,829.000,839.000

File: 2025_09_12_12pct_Hydrated_SiO2_Glass_on_DAC_Culet_50X_532nm_74mW_Andor750_600gv_1030wn_6accum_30s_DePol_Loc3.csv
23.130,3351.000,3312.000,3363.000,3361.000,3376.000,3377.000
34.751,3060.000,3070.000,3061.000,3048.000,3049.000,3057.000
46.355,3204.000,3146.000,3196.000,3248.000,3154.000,3184.000
57.946,3030.000,3157.000,3063.000,3120.000,3136.000,3141.000
69.523,2978.000,2976.000,2998.000,3010.000,2957.000,3032.000
81.084,2796.000,2680.000,2707.000,2764.000,2693.000,2743.000
92.632,2561.000,2548.000,2585.000,2563.000,2623.000,2591.000
104.167,2380.000,2368.000,2321.000,2350.000,2367.000,2376.000
115.685,2319.000,2258.000,2376.000,2299.000,2389.000,2346.000
127.190,2106.000,2037.000,2128.000,2080.000,2084.000,2120.000
138.683,1947.000,1950.000,1915.000,1954.000,1927.000,1939.000
150.158,1826.000,1849.000,1814.000,1818.000,1862.000,1852.000
161.621,1754.000,1790.000,1733.000,1739.000,1821.000,1777.000
173.071,1662.000,1664.000,1703.000,1687.000,1696.000,1685.000
184.504,1615.000,1614.000,1627.000,1600.000,1593.000,1600.000
195.925,1553.000,1531.000,1544.000,1531.000,1551.000,1593.000
207.333,1476.000,1545.000,1520.000,1525.000,1516.000,1515.000
218.724,1467.000,1499.000,1470.000,1455.000,1496.000,1461.000
230.104,1444.000,1451.000,1431.000,1441.000,1427.000,1429.000
241.469,1381.000,1403.000,1413.000,1406.000,1374.000,1408.000
252.819,1361.000,1414.000,1380.000,1418.000,1397.000,1393.000
264.156,1360.000,1371.000,1366.000,1325.000,1350.000,1366.000
275.480,1358.000,1370.000,1326.000,1379.000,1359.000,1353.000
286.790,1332.000,1331.000,1322.000,1330.000,1326.000,1341.000
298.084,1339.000,1303.000,1308.000,1293.000,1317.000,1312.000
309.367,1325.000,1307.000,1351.000,1323.000,1335.000,1308.000
320.635,1273.000,1339.000,1341.000,1340.000,1306.000,1306.000
331.888,1291.000,1284.000,1279.000,1299.000,1273.000,1339.000
343.130,1299.000,1294.000,1334.000,1320.000,1300.000,1315.000
354.357,1309.000,1274.000,1300.000,1330.000,1299.000,1291.000
365.569,1325.000,1301.000,1307.000,1323.000,1305.000,1312.000
376.770,1325.000,1318.000,1313.000,1306.000,1330.000,1325.000
387.956,1344.000,1318.000,1282.000,1318.000,1329.000,1316.000
399.127,1276.000,1304.000,1311.000,1322.000,1315.000,1313.000
410.287,1312.000,1307.000,1291.000,1312.000,1355.000,1310.000
421.432,1333.000,1301.000,1301.000,1339.000,1286.000,1313.000
432.563,1329.000,1324.000,1319.000,1337.000,1317.000,1342.000
443.683,1332.000,1331.000,1347.000,1333.000,1329.000,1353.000
454.788,1338.000,1347.000,1365.000,1361.000,1351.000,1352.000
465.879,1331.000,1343.000,1331.000,1357.000,1384.000,1348.000
476.957,1360.000,1363.000,1366.000,1361.000,1370.000,1369.000
488.022,1309.000,1315.000,1310.000,1326.000,1287.000,1299.000
499.072,1209.000,1199.000,1234.000,1191.000,1194.000,1203.000
510.111,1088.000,1082.000,1077.000,1102.000,1093.000,1071.000
521.136,1010.000,1001.000,1005.000,995.000,1007.000,1021.000
532.147,944.000,966.000,970.000,946.000,959.000,969.000
543.145,952.000,947.000,958.000,950.000,942.000,942.000
554.131,928.000,925.000,911.000,924.000,913.000,917.000
565.100,903.000,895.000,895.000,913.000,892.000,893.000
576.060,897.000,898.000,900.000,896.000,894.000,895.000
587.006,875.000,866.000,860.000,883.000,887.000,853.000
597.937,873.000,846.000,857.000,884.000,884.000,871.000
608.856,854.000,875.000,855.000,871.000,868.000,870.000
619.763,856.000,843.000,848.000,856.000,845.000,841.000
630.655,861.000,853.000,833.000,838.000,842.000,844.000
641.535,841.000,846.000,835.000,854.000,838.000,848.000
652.403,826.000,842.000,849.000,843.000,849.000,834.000
663.256,857.000,838.000,839.000,830.000,840.000,844.000
674.097,840.000,842.000,855.000,824.000,830.000,838.000
684.926,829.000,851.000,823.000,826.000,848.000,842.000
695.739,856.000,832.000,834.000,843.000,838.000,831.000
706.542,870.000,843.000,839.000,864.000,851.000,857.000
717.332,871.000,851.000,855.000,843.000,850.000,860.000
728.106,857.000,854.000,851.000,852.000,832.000,852.000
738.871,859.000,858.000,851.000,851.000,860.000,865.000
749.622,868.000,882.000,881.000,848.000,859.000,876.000
760.360,882.000,899.000,896.000,887.000,892.000,901.000
771.085,946.000,938.000,969.000,938.000,963.000,945.000
781.797,1037.000,1021.000,1024.000,1034.000,1030.000,1012.000
792.498,1056.000,1069.000,1034.000,1069.000,1053.000,1076.000
803.184,1033.000,1044.000,1046.000,1013.000,1030.000,1031.000
813.859,1001.000,1006.000,997.000,1019.000,1011.000,994.000
824.520,967.000,961.000,972.000,958.000,961.000,958.000
835.169,903.000,937.000,905.000,921.000,927.000,927.000
845.806,874.000,873.000,878.000,881.000,867.000,878.000
856.430,861.000,852.000,862.000,864.000,843.000,860.000
867.040,860.000,831.000,847.000,836.000,852.000,843.000
877.640,842.000,846.000,853.000,825.000,842.000,855.000
888.226,858.000,838.000,850.000,831.000,844.000,844.000
898.798,846.000,843.000,846.000,871.000,840.000,854.000
909.360,864.000,875.000,876.000,875.000,855.000,857.000
919.909,877.000,879.000,866.000,888.000,863.000,873.000
930.444,887.000,906.000,907.000,880.000,897.000,886.000
940.968,920.000,909.000,919.000,922.000,924.000,929.000
951.481,952.000,927.000,941.000,944.000,912.000,950.000
961.979,971.000,968.000,973.000,985.000,961.000,982.000
972.466,972.000,995.000,974.000,960.000,976.000,951.000
982.941,945.000,953.000,923.000,958.000,944.000,957.000
993.402,907.000,916.000,903.000,907.000,920.000,896.000
1003.852,902.000,897.000,874.000,909.000,868.000,897.000
1014.290,886.000,879.000,899.000,880.000,867.000,887.000
1024.714,884.000,872.000,875.000,896.000,895.000,877.000
1035.128,912.000,926.000,895.000,903.000,883.000,899.000
1045.530,912.000,909.000,924.000,928.000,910.000,924.000
1055.917,930.000,952.000,921.000,944.000,924.000,935.000
1066.294,916.000,917.000,916.000,922.000,912.000,1230.000
1076.660,904.000,883.000,894.000,895.000,882.000,916.000
1087.011,880.000,891.000,874.000,864.000,849.000,856.000
1097.351,834.000,853.000,872.000,830.000,838.000,830.000
1107.681,834.000,836.000,822.000,825.000,839.000,820.000
1117.995,813.000,828.000,823.000,818.000,825.000,824.000
1128.300,838.000,846.000,851.000,831.000,820.000,839.000
1138.593,840.000,854.000,844.000,854.000,856.000,853.000
1148.872,873.000,856.000,869.000,852.000,850.000,857.000
1159.141,875.000,862.000,850.000,867.000,871.000,859.000
1169.397,867.000,882.000,856.000,886.000,870.000,863.000
1179.641,881.000,859.000,870.000,877.000,883.000,887.000
1189.874,872.000,849.000,860.000,875.000,895.000,880.000
1200.095,875.000,875.000,868.000,869.000,867.000,868.000
1210.302,870.000,856.000,863.000,842.000,849.000,876.000
1220.499,864.000,848.000,854.000,843.000,873.000,860.000
1230.685,835.000,837.000,850.000,834.000,833.000,832.000
1240.858,835.000,843.000,821.000,814.000,817.000,813.000
1251.020,811.000,822.000,823.000,824.000,803.000,799.000
1261.170,809.000,814.000,793.000,817.000,819.000,811.000
1271.308,810.000,810.000,803.000,797.000,802.000,803.000
1281.433,798.000,821.000,802.000,811.000,792.000,798.000
1291.548,819.000,808.000,798.000,815.000,823.000,808.000
1301.652,825.000,805.000,803.000,811.000,802.000,804.000
1311.742,826.000,841.000,815.000,816.000,836.000,820.000
1321.822,1011.000,1024.000,1006.000,1011.000,1025.000,1001.000
1331.891,1503.000,1494.000,1504.000,1530.000,1520.000,1524.000
1341.946,807.000,830.000,840.000,821.000,823.000,831.000
1351.991,798.000,808.000,805.000,804.000,804.000,824.000
1362.025,817.000,808.000,807.000,804.000,787.000,792.000
1372.045,803.000,803.000,803.000,806.000,795.000,803.000
1382.057,809.000,789.000,794.000,795.000,799.000,791.000
1392.056,817.000,807.000,803.000,803.000,800.000,809.000
1402.042,805.000,794.000,812.000,801.000,803.000,802.000
1412.017,811.000,820.000,799.000,797.000,799.000,800.000
1421.982,798.000,805.000,805.000,808.000,791.000,805.000
1431.935,810.000,816.000,801.000,817.000,793.000,810.000
1441.877,802.000,799.000,816.000,815.000,794.000,797.000
1451.807,817.000,794.000,806.000,809.000,796.000,810.000
1461.725,816.000,811.000,815.000,818.000,805.000,801.000
1471.632,797.000,801.000,813.000,794.000,813.000,811.000
1481.530,808.000,810.000,797.000,816.000,816.000,806.000
1491.414,802.000,808.000,806.000,795.000,823.000,812.000
1501.287,809.000,811.000,816.000,797.000,808.000,804.000
1511.151,807.000,806.000,796.000,800.000,815.000,797.000
1521.001,798.000,820.000,808.000,800.000,796.000,802.000
1530.840,795.000,824.000,805.000,817.000,803.000,803.000
1540.670,804.000,809.000,813.000,821.000,807.000,803.000
1550.486,807.000,815.000,810.000,808.000,817.000,806.000
1560.293,800.000,801.000,824.000,804.000,815.000,813.000
1570.088,827.000,812.000,798.000,809.000,815.000,824.000
1579.872,835.000,813.000,836.000,813.000,825.000,817.000
1589.645,812.000,823.000,812.000,838.000,811.000,820.000
1599.408,839.000,825.000,842.000,840.000,838.000,841.000
1609.158,842.000,829.000,832.000,839.000,839.000,832.000
1618.898,837.000,828.000,847.000,813.000,825.000,818.000
1628.627,848.000,838.000,836.000,843.000,832.000,846.000
1638.345,859.000,831.000,841.000,819.000,821.000,823.000
1648.050,819.000,818.000,825.000,827.000,810.000,822.000
1657.747,819.000,808.000,826.000,808.000,812.000,804.000
1667.431,804.000,810.000,818.000,806.000,832.000,808.000
1677.104,818.000,815.000,805.000,809.000,823.000,817.000
1686.768,807.000,803.000,811.000,811.000,812.000,805.000
1696.420,804.000,809.000,803.000,818.000,821.000,800.000
1706.060,814.000,800.000,809.000,796.000,818.000,802.000
1715.691,795.000,818.000,803.000,803.000,807.000,801.000
1725.311,805.000,803.000,801.000,790.000,786.000,794.000
1734.918,794.000,801.000,805.000,815.000,787.000,789.000
1744.517,808.000,798.000,801.000,811.000,797.000,795.000
1754.104,805.000,791.000,804.000,814.000,798.000,795.000
1763.679,814.000,806.000,794.000,802.000,819.000,796.000
1773.245,803.000,801.000,803.000,813.000,799.000,809.000
1782.800,806.000,794.000,794.000,812.000,807.000,799.000
1792.343,795.000,823.000,807.000,802.000,805.000,819.000
1801.877,806.000,814.000,811.000,822.000,824.000,811.000
1811.400,820.000,835.000,817.000,808.000,808.000,810.000
1816.157,828.000,829.000,824.000,822.000,817.000,819.000