Folder: Data/Raman/Silica (part 36)

File: 2025_08_22_CCl4_Top_Glass_50X_532nm_12mW_Kymera328_300gv_2000wn_3accum_10s_Unpol.csv
-2633.671,3070.000,3051.000,3071.000
-2587.503,3068.000,3067.000,3064.000
-2541.538,3064.000,3064.000,3060.000
-2495.768,3059.000,3055.000,3065.000
-2450.194,3055.000,3061.000,3056.000
-2404.815,3054.000,3055.000,3057.000
-2359.630,3050.000,3050.000,3055.000
-2314.635,3056.000,3056.000,3054.000
-2269.831,3056.000,3051.000,3039.000
-2225.221,3051.000,3062.000,3055.000
-2180.797,3041.000,3053.000,3050.000
-2136.557,3042.000,3042.000,3051.000
-2092.508,3045.000,3052.000,3045.000
-2048.642,3049.000,3047.000,3050.000
-2004.959,3058.000,3051.000,3050.000
-1961.459,3043.000,3045.000,3048.000
-1918.143,3055.000,3051.000,3042.000
-1875.004,3058.000,3054.000,3052.000
-1832.047,3051.000,3046.000,3050.000
-1789.269,3046.000,3052.000,3050.000
-1746.666,3043.000,3055.000,3056.000
-1704.237,3057.000,3054.000,3051.000
-1661.988,3059.000,3056.000,3059.000
-1619.908,3064.000,3060.000,3057.000
-1578.003,3057.000,3059.000,3061.000
-1536.271,3055.000,3056.000,3062.000
-1494.706,3061.000,3058.000,3064.000
-1453.313,3066.000,3063.000,3055.000
-1412.088,3064.000,3070.000,3065.000
-1371.031,3063.000,3069.000,3064.000
-1330.139,3071.000,3079.000,3069.000
-1289.414,3070.000,3073.000,3067.000
-1248.853,3079.000,3074.000,3070.000
-1208.454,3079.000,3077.000,3078.000
-1168.219,3076.000,3069.000,3075.000
-1128.146,3081.000,3076.000,3084.000
-1088.232,3077.000,3086.000,3083.000
-1048.479,3082.000,3083.000,3071.000
-1008.886,3087.000,3088.000,3093.000
-969.447,3096.000,3086.000,3108.000
-930.168,3099.000,3112.000,3096.000
-891.043,3115.000,3107.000,3111.000
-852.072,3120.000,3113.000,3116.000
-813.257,3123.000,3134.000,3140.000
-774.595,3134.000,3141.000,3135.000
-736.085,3150.000,3143.000,3159.000
-697.725,3154.000,3150.000,3147.000
-659.518,3148.000,3153.000,3166.000
-621.457,3183.000,3185.000,3177.000
-583.545,3185.000,3201.000,3207.000
-545.781,3230.000,3233.000,3228.000
-508.167,3349.000,3331.000,3329.000
-470.697,3490.000,3463.000,3480.000
-433.370,3717.000,3697.000,3688.000
-396.191,3735.000,3696.000,3745.000
-359.152,3711.000,3662.000,3657.000
-322.259,3769.000,3772.000,3775.000
-285.508,3928.000,3961.000,3901.000
-248.895,3968.000,3987.000,3956.000
-212.425,4093.000,4105.000,4099.000
-176.091,4229.000,4251.000,4240.000
-139.897,4214.000,4266.000,4285.000
-103.843,4624.000,4585.000,4631.000
-67.925,5526.000,5496.000,5441.000
-32.142,7727.000,7702.000,7717.000
3.504,11430.000,11358.000,11251.000
39.017,14009.000,14056.000,13975.000
74.396,8958.000,8972.000,8971.000
109.639,6960.000,6816.000,6779.000
144.754,5817.000,5821.000,5789.000
179.733,5484.000,5463.000,5426.000
214.582,5620.000,5554.000,5611.000
249.303,5934.000,5859.000,5887.000
283.893,5911.000,5915.000,5867.000
318.354,6224.000,6265.000,6167.000
352.688,6430.000,6431.000,6387.000
386.895,6080.000,6048.000,6053.000
420.971,6422.000,6462.000,6391.000
454.925,7399.000,7456.000,7329.000
488.754,7829.000,7815.000,7752.000
522.458,6519.000,6424.000,6455.000
556.038,4950.000,4956.000,4939.000
589.495,4430.000,4452.000,4397.000
622.828,4233.000,4234.000,4208.000
656.039,4101.000,4097.000,4070.000
689.132,4079.000,4046.000,4032.000
722.100,4108.000,4077.000,4108.000
754.953,4372.000,4321.000,4316.000
787.685,4638.000,4620.000,4643.000
820.297,4527.000,4575.000,4542.000
852.793,4188.000,4169.000,4127.000
885.169,3882.000,3901.000,3886.000
917.429,3884.000,3846.000,3805.000
949.576,3905.000,3871.000,3893.000
981.604,3906.000,3895.000,3859.000
1013.521,3884.000,3874.000,3822.000
1045.321,3963.000,3946.000,3903.000
1077.007,4031.000,3985.000,3972.000
1108.582,4031.000,4019.000,3979.000
1140.044,4050.000,3969.000,3996.000
1171.394,4017.000,3984.000,3972.000
1202.634,4006.000,3944.000,3932.000
1233.764,3989.000,3953.000,3906.000
1264.780,3893.000,3885.000,3845.000
1295.690,3886.000,3830.000,3810.000
1326.492,3891.000,3846.000,3819.000
1357.183,3891.000,3843.000,3869.000
1387.768,3920.000,3917.000,3904.000
1418.247,3947.000,3928.000,3915.000
1448.617,3932.000,3931.000,3935.000
1478.882,3976.000,3931.000,3959.000
1509.041,4061.000,3980.000,3997.000
1539.096,4077.000,4044.000,4013.000
1569.048,4043.000,4023.000,4008.000
1598.895,4000.000,3976.000,4004.000
1628.637,4044.000,3929.000,3926.000
1658.279,3994.000,3951.000,3930.000
1687.817,3979.000,3929.000,3973.000
1717.252,4000.000,3979.000,3971.000
1746.589,3984.000,3973.000,3956.000
1775.826,3996.000,3991.000,3973.000
1804.960,4021.000,3997.000,3963.000
1833.996,3995.000,3996.000,4015.000
1862.933,4039.000,4029.000,3978.000
1891.769,4083.000,4023.000,3994.000
1920.510,4065.000,4057.000,4021.000
1949.153,4046.000,4010.000,4047.000
1977.697,4067.000,4039.000,3998.000
2006.148,4063.000,4068.000,4025.000
2034.499,4096.000,4069.000,4045.000
2062.757,4138.000,4040.000,4076.000
2090.918,4115.000,4122.000,4096.000
2118.984,4151.000,4136.000,4119.000
2146.958,4184.000,4183.000,4158.000
2174.839,4206.000,4168.000,4134.000
2202.624,4232.000,4184.000,4163.000
2230.317,4200.000,4176.000,4195.000
2257.920,4206.000,4193.000,4193.000
2285.428,4211.000,4187.000,4184.000
2312.846,4266.000,4281.000,4265.000
2340.175,4270.000,4331.000,4287.000
2367.410,4353.000,4319.000,4293.000
2394.558,4424.000,4341.000,4384.000
2421.614,4461.000,4451.000,4375.000
2448.582,4442.000,4466.000,4405.000
2475.462,4510.000,4448.000,4400.000
2502.254,4498.000,4454.000,4410.000
2528.956,4457.000,4430.000,4444.000
2555.573,4470.000,4426.000,4452.000
2582.103,4446.000,4447.000,4421.000
2608.542,4462.000,4393.000,4459.000
2634.900,4403.000,4404.000,4354.000
2661.171,4420.000,4366.000,4390.000
2687.355,4404.000,4370.000,4403.000
2713.457,4338.000,4387.000,4341.000
2739.474,4357.000,4333.000,4281.000
2765.405,4311.000,4324.000,4284.000
2791.252,4332.000,4304.000,4281.000
2817.019,4347.000,4329.000,4287.000
2842.701,4321.000,4288.000,4331.000
2868.302,4356.000,4316.000,4365.000
2893.820,4346.000,4312.000,4304.000
2919.256,4372.000,4356.000,4331.000
2944.611,4342.000,4323.000,4326.000
2969.885,4325.000,4365.000,4352.000
2995.078,4331.000,4288.000,4338.000
3020.192,4344.000,4299.000,4360.000
3045.228,4309.000,4315.000,4323.000
3070.181,4351.000,4347.000,4266.000
3095.057,4378.000,4362.000,4298.000
3119.854,4373.000,4394.000,4313.000
3144.573,4378.000,4285.000,4367.000
3169.215,4311.000,4340.000,4373.000
3193.777,4359.000,4367.000,4346.000
3218.265,4387.000,4372.000,4350.000
3242.675,4431.000,4403.000,4369.000
3267.007,4411.000,4424.000,4399.000
3291.267,4461.000,4423.000,4419.000
3315.447,4468.000,4406.000,4419.000
3339.553,4470.000,4447.000,4453.000
3363.585,4511.000,4475.000,4491.000
3387.543,4498.000,4487.000,4460.000
3411.425,4516.000,4519.000,4472.000
3435.233,4487.000,4456.000,4468.000
3458.969,4485.000,4483.000,4432.000
3482.630,4493.000,4446.000,4418.000
3506.219,4465.000,4493.000,4463.000
3529.738,4453.000,4470.000,4487.000
3553.180,4512.000,4480.000,4429.000
3576.554,4538.000,4508.000,4498.000
3599.853,4529.000,4527.000,4490.000
3623.083,4537.000,4465.000,4543.000
3646.243,4476.000,4502.000,4475.000
3669.331,4516.000,4492.000,4458.000
3692.348,4494.000,4490.000,4488.000
3715.297,4504.000,4440.000,4442.000
3738.176,4462.000,4460.000,4436.000
3760.983,4482.000,4460.000,4398.000
3783.723,4515.000,4427.000,4388.000
3806.395,4453.000,4438.000,4428.000
3828.997,4462.000,4458.000,4418.000
3851.533,4447.000,4429.000,4397.000
3874.000,4430.000,4431.000,4455.000
3896.401,4445.000,4482.000,4469.000
3918.733,4457.000,4499.000,4463.000
3940.998,4484.000,4512.000,4460.000
3963.197,4506.000,4478.000,4432.000
3985.330,4477.000,4533.000,4478.000
4007.397,4485.000,4460.000,4462.000
4029.397,4446.000,4458.000,4432.000
4051.335,4494.000,4469.000,4460.000
4073.204,4521.000,4508.000,4475.000
4095.011,4470.000,4450.000,4467.000
4116.753,4507.000,4446.000,4466.000
4138.430,4516.000,4524.000,4467.000
4160.044,4483.000,4509.000,4452.000
4181.594,4445.000,4473.000,4439.000
4203.079,4481.000,4469.000,4466.000
4224.503,4451.000,4521.000,4468.000
4245.864,4497.000,4479.000,4500.000
4267.161,4494.000,4470.000,4473.000
4288.398,4508.000,4459.000,4485.000
4309.573,4489.000,4427.000,4469.000
4330.682,4493.000,4449.000,4509.000
4351.733,4511.000,4477.000,4501.000
4372.724,4500.000,4471.000,4388.000
4393.652,4443.000,4442.000,4398.000
4414.521,4417.000,4436.000,4384.000
4435.329,4462.000,4449.000,4462.000
4456.075,4460.000,4423.000,4350.000
4476.762,4407.000,4432.000,4414.000
4497.391,4396.000,4431.000,4410.000
4517.959,4436.000,4389.000,4415.000
4538.469,4416.000,4364.000,4360.000
4558.920,4362.000,4343.000,4403.000
4579.311,4332.000,4408.000,4377.000
4599.647,4380.000,4379.000,4372.000
4619.922,4370.000,4318.000,4333.000
4640.138,4375.000,4352.000,4345.000
4660.299,4361.000,4370.000,4333.000
4680.403,4329.000,4308.000,4314.000
4700.449,4296.000,4283.000,4329.000
4720.437,4294.000,4315.000,4294.000
4740.371,4274.000,4232.000,4277.000
4760.245,4239.000,4277.000,4279.000
4780.066,4239.000,4258.000,4240.000
4799.829,4240.000,4283.000,4283.000
4819.538,4226.000,4205.000,4206.000
4839.192,4181.000,4225.000,4204.000
4858.787,4161.000,4161.000,4175.000
4878.332,4219.000,4193.000,4193.000
4897.820,4192.000,4179.000,4170.000
4917.252,4209.000,4167.000,4159.000
4936.633,4132.000,4170.000,4151.000
4955.958,4175.000,4179.000,4143.000
4975.229,4199.000,4178.000,4141.000
4989.649,4150.000,4129.000,4150.000

File: 2025_08_22_Glass_Slide_50X_532nm_6mW_Andor750_600gv_1030wn_3accum_30s_UnPol.csv
23.130,1003.000,987.000,1021.000
30.879,908.000,918.000,917.000
38.619,961.000,968.000,948.000
46.355,1032.000,1043.000,1023.000
54.083,1045.000,1046.000,1037.000
61.807,1067.000,1056.000,1031.000
69.523,1100.000,1065.000,1087.000
77.233,1062.000,1068.000,1078.000
84.936,1064.000,1089.000,1052.000
92.632,1073.000,1082.000,1076.000
100.323,1100.000,1074.000,1090.000
108.007,1051.000,1054.000,1063.000
115.685,1087.000,1077.000,1086.000
123.359,1056.000,1059.000,1057.000
131.024,1034.000,1068.000,1034.000
138.683,1049.000,1032.000,1028.000
146.335,1077.000,1048.000,1062.000
153.982,1035.000,1042.000,1034.000
161.621,1045.000,1029.000,1043.000
169.256,1050.000,1042.000,1030.000
176.883,1034.000,1026.000,1027.000
184.504,1027.000,1015.000,1020.000
192.122,1036.000,1036.000,1036.000
199.731,1026.000,1005.000,1012.000
207.333,1008.000,1006.000,1000.000
214.929,1034.000,1025.000,1010.000
222.519,1023.000,1014.000,1018.000
230.104,1015.000,1019.000,1018.000
237.681,1015.000,1039.000,1024.000
245.253,1000.000,990.000,1042.000
252.819,1020.000,1003.000,1014.000
260.380,1032.000,1038.000,1043.000
267.933,1036.000,1028.000,1014.000
275.480,1024.000,1019.000,1025.000
283.021,1036.000,1036.000,1023.000
290.556,1036.000,1039.000,1064.000
298.084,1044.000,1025.000,1052.000
305.607,1061.000,1053.000,1045.000
313.123,1057.000,1054.000,1053.000
320.635,1047.000,1057.000,1042.000
328.139,1065.000,1036.000,1038.000
335.638,1046.000,1049.000,1059.000
343.130,1077.000,1041.000,1056.000
350.616,1070.000,1075.000,1056.000
358.095,1035.000,1063.000,1088.000
365.569,1064.000,1050.000,1077.000
373.037,1060.000,1071.000,1054.000
380.498,1075.000,1093.000,1061.000
387.956,1076.000,1067.000,1072.000
395.405,1080.000,1115.000,1100.000
402.849,1100.000,1086.000,1070.000
410.287,1089.000,1078.000,1078.000
417.719,1093.000,1082.000,1055.000
425.144,1107.000,1101.000,1073.000
432.563,1088.000,1098.000,1095.000
439.977,1073.000,1068.000,1089.000
447.386,1094.000,1095.000,1081.000
454.788,1100.000,1092.000,1102.000
462.183,1099.000,1092.000,1083.000
469.574,1101.000,1088.000,1102.000
476.957,1113.000,1100.000,1095.000
484.335,1114.000,1090.000,1079.000
491.706,1080.000,1086.000,1095.000
499.072,1075.000,1105.000,1096.000
506.432,1097.000,1099.000,1123.000
513.788,1126.000,1102.000,1061.000
521.136,1083.000,1090.000,1053.000
528.479,1131.000,1097.000,1068.000
535.815,1138.000,1129.000,1118.000
543.145,1151.000,1148.000,1120.000
550.469,1140.000,1159.000,1119.000
557.788,1171.000,1153.000,1157.000
565.100,1188.000,1163.000,1159.000
572.408,1178.000,1167.000,1151.000
579.711,1159.000,1157.000,1165.000
587.006,1134.000,1133.000,1131.000
594.295,1150.000,1119.000,1133.000
601.579,1122.000,1123.000,1141.000
608.856,1121.000,1125.000,1112.000
616.129,1104.000,1106.000,1103.000
623.394,1091.000,1084.000,1078.000
630.655,1087.000,1104.000,1090.000
637.911,1082.000,1051.000,1056.000
645.160,1088.000,1067.000,1074.000
652.403,1078.000,1063.000,1046.000
659.640,1069.000,1040.000,1048.000
666.872,1047.000,1037.000,1032.000
674.097,1041.000,1016.000,1000.000
681.317,1021.000,1017.000,1009.000
688.531,1033.000,1019.000,1003.000
695.739,1022.000,1003.000,1002.000
702.944,1006.000,1009.000,998.000
710.141,996.000,992.000,982.000
717.332,991.000,998.000,991.000
724.517,988.000,991.000,978.000
731.697,990.000,971.000,985.000
738.871,981.000,981.000,962.000
746.039,969.000,984.000,984.000
753.202,990.000,1010.000,971.000
760.360,1003.000,980.000,953.000
767.512,1002.000,992.000,985.000
774.657,1006.000,1016.000,998.000
781.797,1013.000,989.000,1002.000
788.932,1014.000,1016.000,998.000
796.060,1015.000,1002.000,1008.000
803.184,993.000,1008.000,980.000
810.301,1014.000,984.000,992.000
817.413,1007.000,959.000,972.000
824.520,965.000,969.000,958.000
831.622,1004.000,981.000,971.000
838.716,964.000,967.000,953.000
845.806,983.000,970.000,951.000
852.890,984.000,986.000,970.000
859.968,970.000,963.000,946.000
867.040,980.000,996.000,963.000
874.106,986.000,974.000,962.000
881.168,987.000,971.000,963.000
888.226,977.000,969.000,970.000
895.276,976.000,971.000,964.000
902.321,999.000,978.000,965.000
909.360,1021.000,987.000,964.000
916.393,1000.000,974.000,991.000
923.422,1023.000,1001.000,990.000
930.444,999.000,1006.000,1013.000
937.461,1031.000,1021.000,997.000
944.475,1041.000,1064.000,1023.000
951.481,1062.000,1036.000,995.000
958.482,1045.000,1045.000,1030.000
965.476,1026.000,1047.000,1029.000
972.466,1054.000,1020.000,1019.000
979.451,1062.000,1048.000,1050.000
986.428,1054.000,1041.000,1075.000
993.402,1072.000,1059.000,1038.000
1000.369,1076.000,1074.000,1077.000
1007.333,1074.000,1059.000,1032.000
1014.290,1079.000,1064.000,1071.000
1021.241,1074.000,1091.000,1067.000
1028.188,1097.000,1101.000,1067.000
1035.128,1118.000,1084.000,1118.000
1042.063,1141.000,1130.000,1107.000
1048.994,1127.000,1144.000,1135.000
1055.917,1138.000,1154.000,1158.000
1062.838,1168.000,1166.000,1155.000
1069.752,1222.000,1203.000,1209.000
1076.660,1232.000,1219.000,1220.000
1083.562,1245.000,1243.000,1226.000
1090.460,1263.000,1247.000,1242.000
1097.351,1260.000,1262.000,1242.000
1104.238,1256.000,1250.000,1249.000
1111.120,1240.000,1251.000,1199.000
1117.995,1211.000,1228.000,1204.000
1124.867,1189.000,1187.000,1152.000
1131.733,1185.000,1151.000,1149.000
1138.593,1159.000,1155.000,1136.000
1145.447,1127.000,1111.000,1119.000
1152.297,1103.000,1125.000,1094.000
1159.141,1114.000,1096.000,1096.000
1165.979,1083.000,1081.000,1041.000
1172.813,1082.000,1068.000,1047.000
1179.641,1070.000,1048.000,1043.000
1186.465,1059.000,1049.000,1018.000
1193.282,1065.000,1062.000,1031.000
1200.095,1021.000,1025.000,1041.000
1206.902,1040.000,998.000,1016.000
1213.703,1036.000,1023.000,992.000
1220.499,1034.000,1016.000,993.000
1227.291,1035.000,1011.000,1009.000
1234.076,1025.000,991.000,974.000
1240.858,1038.000,1029.000,990.000
1247.634,1000.000,993.000,1002.000
1254.405,1015.000,1003.000,1004.000
1261.170,1005.000,999.000,979.000
1267.929,1023.000,995.000,976.000
1274.683,1019.000,1009.000,1023.000
1281.433,1011.000,999.000,991.000
1288.177,1024.000,1011.000,999.000
1294.916,1008.000,1000.000,997.000
1301.652,990.000,994.000,977.000
1308.380,982.000,1011.000,1014.000
1315.104,997.000,1022.000,1007.000
1321.822,1011.000,1005.000,1002.000
1328.535,999.000,999.000,1004.000
1335.243,1023.000,987.000,978.000
1341.946,1006.000,1025.000,991.000
1348.643,1011.000,999.000,979.000
1355.337,1024.000,1012.000,984.000
1362.025,1005.000,1011.000,991.000
1368.707,994.000,1009.000,991.000
1375.384,1026.000,1092.000,979.000
1382.057,1020.000,1011.000,974.000
1388.723,1024.000,1003.000,1005.000
1395.385,1012.000,1026.000,983.000
1402.042,1016.000,1004.000,983.000
1408.692,1012.000,1002.000,1003.000
1415.341,1023.000,1007.000,1007.000
1421.982,1020.000,1009.000,990.000
1428.619,1001.000,990.000,974.000
1435.250,1023.000,1016.000,1008.000
1441.877,1022.000,1007.000,1000.000
1448.497,1019.000,993.000,988.000
1455.114,1026.000,1026.000,996.000
1461.725,992.000,996.000,998.000
1468.331,1036.000,1018.000,999.000
1474.934,1033.000,1021.000,1021.000
1481.530,1041.000,1020.000,983.000
1488.120,1007.000,1027.000,1031.000
1494.707,1021.000,1009.000,1005.000
1501.287,1040.000,1017.000,1013.000
1507.863,1062.000,1019.000,1019.000
1514.435,1026.000,1046.000,1020.000
1521.001,1029.000,1016.000,1035.000
1527.561,1026.000,1026.000,1016.000
1534.118,1043.000,1030.000,1020.000
1540.670,1004.000,1053.000,1000.000
1547.216,1028.000,1010.000,1006.000
1553.756,1038.000,1030.000,995.000
1560.293,1042.000,1020.000,1032.000
1566.824,1038.000,1028.000,997.000
1573.350,1032.000,1027.000,1032.000
1579.872,1014.000,1039.000,1011.000
1586.390,1037.000,1047.000,996.000
1592.901,1045.000,1020.000,1011.000
1599.408,1046.000,1024.000,1016.000
1605.909,1034.000,1015.000,1023.000
1612.405,1029.000,1038.000,1025.000
1618.898,1022.000,1020.000,1014.000
1625.384,1036.000,1035.000,1005.000
1631.866,1057.000,1035.000,1013.000
1638.345,1056.000,1011.000,1010.000
1644.816,1041.000,3197.000,1028.000
1651.285,1035.000,1037.000,1030.000
1657.747,1032.000,1020.000,1048.000
1664.204,1023.000,1028.000,1026.000
1670.656,1026.000,1028.000,1009.000
1677.104,1054.000,1048.000,1000.000
1683.548,1031.000,1009.000,999.000
1689.986,1033.000,1028.000,1026.000
1696.420,1049.000,1017.000,1002.000
1702.848,1038.000,1027.000,1033.000
1709.272,1049.000,1029.000,1027.000
1715.691,1043.000,1030.000,1018.000
1722.105,1038.000,1022.000,1017.000
1728.514,1038.000,1016.000,1003.000
1734.918,1030.000,1041.000,1010.000
1741.318,1043.000,1049.000,1006.000
1747.712,1055.000,1020.000,1027.000
1754.104,1056.000,1020.000,1019.000
1760.489,1039.000,1022.000,1014.000
1766.870,1045.000,1028.000,1020.000
1773.245,1063.000,1058.000,1025.000
1779.616,1030.000,1021.000,1025.000
1785.982,1046.000,1024.000,1019.000
1792.343,1050.000,1027.000,1015.000
1798.700,1050.000,1051.000,1054.000
1805.052,1064.000,1055.000,1023.000
1811.400,1046.000,1053.000,1042.000
1816.157,1071.000,1061.000,1028.000