Folder: Data/Raman/Silica (part 126)

File: 2025_09_12_12pct_Hydrated_SiO2_Glass_on_DAC_Culet_50X_532nm_74mW_Andor750_600gv_3400wn_6accum_30s_DePol_Loc4.csv
2654.492,839.000,865.000,834.000,834.000,851.000,837.000
2664.444,877.000,864.000,847.000,850.000,842.000,837.000
2674.383,868.000,851.000,848.000,853.000,855.000,854.000
2684.311,839.000,871.000,866.000,855.000,840.000,865.000
2694.227,880.000,855.000,853.000,848.000,838.000,852.000
2704.130,872.000,866.000,866.000,837.000,855.000,833.000
2714.020,843.000,843.000,856.000,872.000,862.000,837.000
2723.899,865.000,864.000,876.000,859.000,851.000,851.000
2733.765,859.000,856.000,871.000,849.000,861.000,842.000
2743.620,868.000,866.000,855.000,857.000,852.000,848.000
2753.462,863.000,861.000,847.000,861.000,855.000,846.000
2763.292,872.000,874.000,850.000,859.000,844.000,851.000
2773.111,863.000,856.000,862.000,867.000,852.000,852.000
2782.917,861.000,873.000,853.000,843.000,846.000,845.000
2792.711,856.000,877.000,863.000,853.000,854.000,845.000
2802.494,868.000,870.000,873.000,860.000,851.000,859.000
2812.264,872.000,856.000,859.000,857.000,854.000,844.000
2822.022,868.000,873.000,877.000,875.000,860.000,849.000
2831.768,884.000,869.000,865.000,860.000,860.000,841.000
2841.504,855.000,878.000,862.000,869.000,863.000,848.000
2851.227,869.000,884.000,873.000,853.000,851.000,856.000
2860.937,894.000,897.000,867.000,874.000,865.000,871.000
2870.636,907.000,883.000,894.000,902.000,865.000,883.000
2880.323,902.000,907.000,891.000,895.000,897.000,873.000
2889.998,973.000,952.000,946.000,983.000,965.000,943.000
2899.662,920.000,955.000,944.000,919.000,923.000,912.000
2909.314,932.000,947.000,937.000,932.000,916.000,924.000
2918.955,962.000,957.000,955.000,953.000,958.000,955.000
2928.584,941.000,960.000,921.000,926.000,930.000,911.000
2938.201,923.000,930.000,913.000,915.000,906.000,909.000
2947.805,919.000,926.000,929.000,895.000,917.000,901.000
2957.399,917.000,926.000,919.000,922.000,922.000,904.000
2966.981,941.000,929.000,941.000,927.000,935.000,940.000
2976.552,961.000,957.000,939.000,945.000,928.000,927.000
2986.112,923.000,931.000,926.000,916.000,939.000,914.000
2995.659,928.000,918.000,912.000,910.000,916.000,924.000
3005.195,924.000,912.000,914.000,933.000,898.000,901.000
3014.719,916.000,930.000,905.000,928.000,910.000,909.000
3024.231,919.000,916.000,914.000,918.000,910.000,896.000
3033.733,941.000,925.000,898.000,911.000,914.000,898.000
3043.222,927.000,921.000,917.000,916.000,914.000,915.000
3052.700,928.000,908.000,912.000,915.000,912.000,909.000
3062.168,931.000,924.000,925.000,937.000,912.000,923.000
3071.625,924.000,934.000,946.000,936.000,930.000,902.000
3081.068,944.000,943.000,920.000,934.000,916.000,940.000
3090.502,935.000,942.000,936.000,950.000,923.000,940.000
3099.923,957.000,928.000,946.000,939.000,937.000,921.000
3109.333,962.000,983.000,944.000,942.000,916.000,923.000
3118.732,956.000,942.000,976.000,950.000,947.000,930.000
3128.121,957.000,965.000,931.000,951.000,984.000,952.000
3137.497,990.000,961.000,963.000,931.000,952.000,951.000
3146.863,973.000,987.000,951.000,991.000,955.000,989.000
3156.217,966.000,993.000,989.000,971.000,985.000,951.000
3165.560,1008.000,987.000,985.000,980.000,974.000,947.000
3174.892,1003.000,998.000,984.000,1002.000,978.000,980.000
3184.212,1020.000,1004.000,1002.000,1006.000,1010.000,975.000
3193.522,1009.000,1033.000,1014.000,1001.000,999.000,1009.000
3202.821,1047.000,1017.000,1030.000,1023.000,1020.000,1038.000
3212.109,1034.000,1055.000,1021.000,1039.000,1006.000,1002.000
3221.385,1024.000,1037.000,1046.000,1034.000,1038.000,1043.000
3230.650,1059.000,1049.000,1057.000,1055.000,1062.000,1041.000
3239.904,1053.000,1064.000,1062.000,1083.000,1040.000,1050.000
3249.148,1060.000,1054.000,1050.000,1058.000,1060.000,1028.000
3258.381,1076.000,1083.000,1039.000,1068.000,1067.000,1059.000
3267.603,1112.000,1080.000,1102.000,1066.000,1067.000,1041.000
3276.813,1084.000,1110.000,1100.000,1074.000,1084.000,1064.000
3286.013,1093.000,1105.000,1091.000,1066.000,1090.000,1082.000
3295.200,1116.000,1099.000,1091.000,1109.000,1121.000,1095.000
3304.379,1110.000,1140.000,1116.000,1078.000,1116.000,1099.000
3313.545,1147.000,1106.000,1118.000,1079.000,1098.000,1102.000
3322.701,1123.000,1121.000,1125.000,1125.000,1127.000,1129.000
3331.848,1142.000,1166.000,1145.000,1107.000,1150.000,1111.000
3340.982,1160.000,1169.000,1133.000,1137.000,1162.000,1103.000
3350.105,1144.000,1174.000,1197.000,1150.000,1148.000,1159.000
3359.218,1195.000,1187.000,1173.000,1174.000,1165.000,1159.000
3368.321,1207.000,1217.000,1169.000,1178.000,1178.000,1156.000
3377.412,1192.000,1218.000,1186.000,1194.000,1215.000,1188.000
3386.492,1216.000,1203.000,1221.000,1201.000,1170.000,1213.000
3395.562,1215.000,1212.000,1207.000,1207.000,1201.000,1199.000
3404.623,1208.000,1208.000,1205.000,1218.000,1221.000,1215.000
3413.672,1221.000,1233.000,1255.000,1273.000,1232.000,1223.000
3422.709,1247.000,1256.000,1252.000,1230.000,1239.000,1209.000
3431.737,1261.000,1269.000,1252.000,1246.000,1254.000,1276.000
3440.753,1267.000,1259.000,1250.000,1270.000,1234.000,1250.000
3449.759,1240.000,1239.000,1264.000,1289.000,1251.000,1262.000
3458.755,1262.000,1276.000,1260.000,1279.000,1285.000,1242.000
3467.740,1279.000,1275.000,1272.000,1251.000,1282.000,1246.000
3476.716,1285.000,1279.000,1259.000,1267.000,1265.000,1241.000
3485.680,1264.000,1240.000,1266.000,1274.000,1263.000,1247.000
3494.634,1264.000,1281.000,1250.000,1261.000,1239.000,1252.000
3503.577,1239.000,1245.000,1285.000,1267.000,1277.000,1253.000
3512.509,1258.000,1248.000,1249.000,1245.000,1261.000,1262.000
3521.431,1250.000,1234.000,1246.000,1247.000,1257.000,1232.000
3530.343,1256.000,1230.000,1229.000,1225.000,1240.000,1222.000
3539.246,1240.000,1234.000,1232.000,1244.000,1230.000,1227.000
3548.137,1230.000,1202.000,1260.000,1220.000,1195.000,1202.000
3557.017,1240.000,1208.000,1202.000,1201.000,1214.000,1201.000
3565.888,1214.000,1200.000,1207.000,1222.000,1193.000,1197.000
3574.749,1214.000,1216.000,1216.000,1210.000,1211.000,1180.000
3583.597,1241.000,1232.000,1203.000,1223.000,1205.000,1195.000
3592.437,1238.000,1212.000,1262.000,1212.000,1207.000,1191.000
3601.268,1214.000,1211.000,1212.000,1204.000,1200.000,1186.000
3610.086,1188.000,1187.000,1168.000,1186.000,1196.000,1187.000
3618.896,1186.000,1160.000,1171.000,1140.000,1151.000,2706.000
3627.694,1189.000,1155.000,1170.000,1155.000,1123.000,1156.000
3636.482,1170.000,1149.000,1163.000,1169.000,1147.000,1146.000
3645.260,1130.000,1144.000,1137.000,1131.000,1144.000,1151.000
3654.029,1133.000,1140.000,1132.000,1117.000,1133.000,1117.000
3662.786,1133.000,1126.000,1102.000,1098.000,1093.000,1081.000
3671.535,1063.000,1083.000,1057.000,1071.000,1051.000,1066.000
3680.272,1036.000,1036.000,1042.000,1019.000,1006.000,1012.000
3689.000,984.000,979.000,989.000,979.000,952.000,946.000
3697.717,922.000,938.000,930.000,923.000,924.000,915.000
3706.425,923.000,895.000,904.000,902.000,885.000,896.000
3715.122,878.000,889.000,896.000,875.000,895.000,872.000
3723.809,862.000,841.000,879.000,864.000,849.000,843.000
3732.487,862.000,875.000,858.000,853.000,851.000,836.000
3741.155,860.000,853.000,872.000,839.000,852.000,857.000
3749.813,859.000,846.000,853.000,859.000,850.000,848.000
3758.460,855.000,852.000,848.000,846.000,843.000,832.000
3767.097,869.000,846.000,843.000,860.000,819.000,821.000
3775.724,837.000,860.000,842.000,831.000,841.000,822.000
3784.343,846.000,845.000,856.000,843.000,838.000,835.000
3792.950,839.000,835.000,825.000,839.000,831.000,831.000
3801.550,843.000,833.000,826.000,831.000,821.000,812.000
3810.138,833.000,836.000,842.000,826.000,825.000,826.000
3818.715,827.000,839.000,847.000,831.000,819.000,816.000
3827.284,838.000,846.000,846.000,830.000,824.000,824.000
3835.842,855.000,839.000,838.000,836.000,812.000,836.000
3844.392,827.000,851.000,829.000,822.000,819.000,817.000
3852.931,844.000,825.000,833.000,832.000,835.000,819.000
3861.461,835.000,837.000,835.000,823.000,826.000,811.000
3869.981,832.000,843.000,824.000,828.000,830.000,834.000
3878.490,829.000,843.000,839.000,816.000,827.000,828.000
3886.991,841.000,841.000,835.000,824.000,832.000,840.000
3895.481,827.000,828.000,837.000,821.000,834.000,820.000
3903.962,845.000,844.000,822.000,842.000,831.000,825.000
3912.433,843.000,841.000,826.000,826.000,832.000,833.000
3920.897,839.000,827.000,839.000,834.000,807.000,815.000
3929.348,862.000,831.000,823.000,831.000,833.000,829.000
3937.791,839.000,829.000,827.000,838.000,828.000,840.000
3946.223,847.000,830.000,813.000,827.000,828.000,832.000
3954.647,834.000,830.000,819.000,818.000,838.000,829.000
3963.060,832.000,831.000,827.000,832.000,818.000,812.000
3971.464,866.000,844.000,838.000,824.000,839.000,824.000
3979.859,837.000,829.000,839.000,834.000,831.000,836.000
3988.245,842.000,844.000,847.000,844.000,846.000,831.000
3989.441,853.000,844.000,863.000,829.000,841.000,858.000

File: 2025_09_12_12pct_Hydrated_SiO2_Glass_on_DAC_Culet_50X_532nm_74mW_Andor750_600gv_3400wn_6accum_30s_DePol_Loc5_DAC2.csv
2654.492,811.000,800.000,827.000,807.000,807.000,802.000
2664.444,820.000,823.000,823.000,820.000,817.000,809.000
2674.383,825.000,829.000,820.000,810.000,822.000,804.000
2684.311,811.000,819.000,819.000,825.000,807.000,824.000
2694.227,835.000,812.000,819.000,825.000,809.000,813.000
2704.130,811.000,826.000,822.000,807.000,810.000,815.000
2714.020,838.000,839.000,827.000,813.000,813.000,802.000
2723.899,828.000,813.000,814.000,807.000,812.000,790.000
2733.765,845.000,825.000,808.000,822.000,819.000,809.000
2743.620,842.000,810.000,801.000,823.000,797.000,810.000
2753.462,835.000,835.000,826.000,811.000,821.000,812.000
2763.292,808.000,831.000,830.000,818.000,806.000,817.000
2773.111,821.000,826.000,823.000,817.000,810.000,804.000
2782.917,823.000,828.000,831.000,814.000,816.000,804.000
2792.711,816.000,825.000,823.000,809.000,810.000,787.000
2802.494,831.000,823.000,842.000,807.000,803.000,803.000
2812.264,834.000,818.000,809.000,819.000,810.000,817.000
2822.022,835.000,807.000,828.000,803.000,819.000,812.000
2831.768,808.000,828.000,814.000,831.000,812.000,800.000
2841.504,838.000,828.000,802.000,807.000,813.000,810.000
2851.227,835.000,830.000,819.000,833.000,819.000,815.000
2860.937,840.000,816.000,834.000,833.000,817.000,803.000
2870.636,831.000,830.000,825.000,828.000,824.000,813.000
2880.323,839.000,825.000,848.000,824.000,814.000,816.000
2889.998,840.000,843.000,837.000,830.000,832.000,816.000
2899.662,851.000,833.000,848.000,836.000,831.000,832.000
2909.314,889.000,886.000,866.000,880.000,839.000,852.000
2918.955,914.000,910.000,919.000,902.000,892.000,896.000
2928.584,851.000,896.000,872.000,861.000,864.000,884.000
2938.201,889.000,862.000,856.000,851.000,843.000,832.000
2947.805,859.000,849.000,859.000,851.000,841.000,824.000
2957.399,849.000,850.000,851.000,850.000,835.000,843.000
2966.981,870.000,863.000,849.000,847.000,841.000,851.000
2976.552,866.000,859.000,864.000,870.000,850.000,854.000
2986.112,868.000,861.000,868.000,844.000,859.000,852.000
2995.659,852.000,836.000,848.000,839.000,848.000,847.000
3005.195,851.000,847.000,852.000,846.000,848.000,836.000
3014.719,877.000,850.000,856.000,855.000,834.000,842.000
3024.231,876.000,862.000,865.000,857.000,847.000,855.000
3033.733,858.000,860.000,895.000,865.000,846.000,867.000
3043.222,853.000,853.000,877.000,853.000,838.000,870.000
3052.700,851.000,855.000,854.000,852.000,838.000,859.000
3062.168,882.000,852.000,850.000,865.000,859.000,845.000
3071.625,870.000,882.000,862.000,869.000,851.000,892.000
3081.068,873.000,871.000,868.000,880.000,868.000,853.000
3090.502,892.000,862.000,883.000,879.000,885.000,852.000
3099.923,863.000,865.000,867.000,891.000,854.000,846.000
3109.333,888.000,883.000,860.000,875.000,867.000,854.000
3118.732,903.000,893.000,896.000,888.000,898.000,895.000
3128.121,917.000,921.000,894.000,908.000,874.000,912.000
3137.497,920.000,905.000,914.000,898.000,891.000,878.000
3146.863,928.000,911.000,912.000,911.000,907.000,873.000
3156.217,915.000,926.000,895.000,899.000,906.000,915.000
3165.560,933.000,910.000,925.000,932.000,906.000,907.000
3174.892,932.000,937.000,919.000,924.000,918.000,916.000
3184.212,928.000,930.000,931.000,930.000,922.000,918.000
3193.522,945.000,941.000,947.000,926.000,936.000,923.000
3202.821,958.000,973.000,942.000,954.000,920.000,941.000
3212.109,949.000,971.000,963.000,951.000,941.000,951.000
3221.385,980.000,945.000,962.000,925.000,953.000,957.000
3230.650,977.000,983.000,956.000,946.000,927.000,954.000
3239.904,955.000,979.000,971.000,951.000,983.000,949.000
3249.148,966.000,972.000,972.000,970.000,952.000,953.000
3258.381,973.000,962.000,973.000,970.000,940.000,973.000
3267.603,1000.000,988.000,982.000,995.000,970.000,971.000
3276.813,981.000,992.000,981.000,983.000,988.000,973.000
3286.013,985.000,994.000,1007.000,979.000,989.000,964.000
3295.200,996.000,994.000,985.000,981.000,987.000,982.000
3304.379,991.000,997.000,993.000,1010.000,994.000,990.000
3313.545,1034.000,1012.000,984.000,999.000,987.000,988.000
3322.701,1027.000,1021.000,1010.000,1017.000,991.000,1006.000
3331.848,1029.000,1036.000,1015.000,1022.000,1021.000,1021.000
3340.982,1034.000,1034.000,1026.000,1020.000,1029.000,1014.000
3350.105,1055.000,1044.000,1037.000,1029.000,1027.000,1014.000
3359.218,1038.000,1051.000,1045.000,1030.000,1051.000,1032.000
3368.321,1062.000,1071.000,1060.000,1028.000,1034.000,1044.000
3377.412,1082.000,1059.000,1061.000,1066.000,1065.000,1053.000
3386.492,1052.000,1089.000,1047.000,1090.000,1074.000,1065.000
3395.562,1078.000,1086.000,1099.000,1070.000,1063.000,1052.000
3404.623,1061.000,1086.000,1068.000,1077.000,1048.000,1090.000
3413.672,1081.000,1097.000,1123.000,1085.000,1077.000,1080.000
3422.709,1093.000,1074.000,1079.000,1096.000,1083.000,1086.000
3431.737,1103.000,1105.000,1104.000,1090.000,1087.000,1104.000
3440.753,1107.000,1114.000,1108.000,1100.000,1095.000,1102.000
3449.759,1102.000,1095.000,1102.000,1125.000,1120.000,1084.000
3458.755,1113.000,1109.000,1112.000,1098.000,1092.000,1101.000
3467.740,1124.000,1115.000,1108.000,1098.000,1109.000,1097.000
3476.716,1123.000,1133.000,1113.000,1089.000,1103.000,1107.000
3485.680,1104.000,1118.000,1100.000,1083.000,1095.000,1101.000
3494.634,1132.000,1114.000,1100.000,1072.000,1081.000,1099.000
3503.577,1113.000,1089.000,1090.000,1099.000,1088.000,1091.000
3512.509,1114.000,1071.000,1067.000,1093.000,1085.000,1071.000
3521.431,1109.000,1112.000,1102.000,1088.000,1093.000,1057.000
3530.343,1110.000,1087.000,1079.000,1075.000,1075.000,1077.000
3539.246,1057.000,1095.000,1085.000,1079.000,1067.000,1048.000
3548.137,1079.000,1089.000,1079.000,1082.000,1100.000,1091.000
3557.017,1085.000,1063.000,1061.000,1058.000,1084.000,1065.000
3565.888,1076.000,1062.000,1053.000,1083.000,1049.000,1076.000
3574.749,1077.000,1075.000,1062.000,1052.000,1065.000,1055.000
3583.597,1082.000,1081.000,1083.000,1085.000,1072.000,1046.000
3592.437,1098.000,1080.000,1077.000,1059.000,1096.000,1072.000
3601.268,1084.000,1095.000,1083.000,1077.000,1082.000,1083.000
3610.086,1080.000,1064.000,1051.000,1051.000,1042.000,1032.000
3618.896,1055.000,1024.000,1039.000,1041.000,1050.000,1031.000
3627.694,1040.000,1022.000,1033.000,1049.000,1031.000,1018.000
3636.482,1023.000,1046.000,1012.000,1032.000,1018.000,1021.000
3645.260,1030.000,1019.000,1015.000,1038.000,1017.000,1023.000
3654.029,1033.000,1020.000,1027.000,1006.000,1021.000,994.000
3662.786,1012.000,1017.000,981.000,982.000,1006.000,982.000
3671.535,976.000,957.000,961.000,952.000,966.000,937.000
3680.272,920.000,925.000,948.000,910.000,918.000,918.000
3689.000,883.000,881.000,882.000,877.000,863.000,879.000
3697.717,846.000,840.000,850.000,832.000,825.000,824.000
3706.425,814.000,820.000,806.000,825.000,814.000,801.000
3715.122,811.000,796.000,799.000,791.000,785.000,775.000
3723.809,772.000,786.000,792.000,800.000,774.000,763.000
3732.487,789.000,789.000,777.000,785.000,787.000,787.000
3741.155,787.000,778.000,771.000,767.000,764.000,754.000
3749.813,774.000,767.000,778.000,769.000,774.000,755.000
3758.460,774.000,772.000,771.000,775.000,754.000,759.000
3767.097,764.000,772.000,763.000,762.000,761.000,773.000
3775.724,778.000,774.000,771.000,753.000,760.000,746.000
3784.343,762.000,767.000,763.000,755.000,760.000,752.000
3792.950,769.000,761.000,757.000,746.000,752.000,749.000
3801.550,761.000,775.000,754.000,759.000,756.000,764.000
3810.138,764.000,759.000,764.000,757.000,757.000,750.000
3818.715,774.000,749.000,758.000,742.000,758.000,750.000
3827.284,753.000,746.000,767.000,753.000,767.000,755.000
3835.842,767.000,759.000,767.000,758.000,758.000,747.000
3844.392,763.000,762.000,760.000,759.000,763.000,753.000
3852.931,748.000,767.000,769.000,761.000,749.000,763.000
3861.461,760.000,762.000,750.000,763.000,767.000,758.000
3869.981,760.000,755.000,763.000,759.000,757.000,763.000
3878.490,770.000,767.000,760.000,745.000,756.000,747.000
3886.991,778.000,748.000,762.000,741.000,757.000,762.000
3895.481,766.000,746.000,771.000,745.000,755.000,754.000
3903.962,755.000,758.000,766.000,745.000,752.000,730.000
3912.433,756.000,761.000,759.000,765.000,756.000,750.000
3920.897,764.000,751.000,764.000,760.000,747.000,748.000
3929.348,765.000,742.000,756.000,756.000,754.000,753.000
3937.791,761.000,771.000,760.000,764.000,757.000,745.000
3946.223,760.000,757.000,751.000,748.000,763.000,750.000
3954.647,754.000,752.000,754.000,761.000,753.000,761.000
3963.060,770.000,759.000,747.000,755.000,759.000,752.000
3971.464,759.000,751.000,761.000,762.000,750.000,753.000
3979.859,761.000,779.000,759.000,767.000,763.000,757.000
3988.245,777.000,768.000,764.000,781.000,755.000,778.000
3989.441,788.000,781.000,782.000,771.000,772.000,767.000

File: 2025_09_12_CCl4_50X_532nm_6mW_Andor750_600gv_1030wn_1accum_10s_DePol.csv
23.130,3000.000
30.879,2494.000
38.619,1949.000
46.355,1653.000
54.083,1329.000
61.807,1146.000
69.523,973.000
77.233,858.000
84.936,810.000
92.632,766.000
100.323,757.000
108.007,722.000
115.685,714.000
123.359,717.000
131.024,713.000
138.683,703.000
146.335,700.000
153.982,707.000
161.621,695.000
169.256,697.000
176.883,694.000
184.504,726.000
192.122,733.000
199.731,759.000
207.333,856.000
214.929,1122.000
222.519,2362.000
230.104,1584.000
237.681,1025.000
245.253,863.000
252.819,805.000
260.380,747.000
267.933,755.000
275.480,751.000
283.021,763.000
290.556,782.000
298.084,841.000
305.607,994.000
313.123,1696.000
320.635,2730.000
328.139,1217.000
335.638,900.000
343.130,793.000
350.616,757.000
358.095,726.000
365.569,717.000
373.037,712.000
380.498,704.000
387.956,710.000
395.405,707.000
402.849,726.000
410.287,716.000
417.719,701.000
425.144,713.000
432.563,720.000
439.977,719.000
447.386,739.000
454.788,757.000
462.183,827.000
469.574,751.000
476.957,738.000
484.335,729.000
491.706,717.000
499.072,720.000
506.432,711.000
513.788,699.000
521.136,726.000
528.479,714.000
535.815,703.000
543.145,715.000
550.469,716.000
557.788,704.000
565.100,711.000
572.408,704.000
579.711,710.000
587.006,721.000
594.295,716.000
601.579,719.000
608.856,726.000
616.129,726.000
623.394,719.000
630.655,724.000
637.911,703.000
645.160,716.000
652.403,726.000
659.640,703.000
666.872,717.000
674.097,728.000
681.317,723.000
688.531,730.000
695.739,717.000
702.944,714.000
710.141,723.000
717.332,731.000
724.517,753.000
731.697,764.000
738.871,808.000
746.039,865.000
753.202,1017.000
760.360,1105.000
767.512,1065.000
774.657,1026.000
781.797,1038.000
788.932,1105.000
796.060,1054.000
803.184,937.000
810.301,849.000
817.413,791.000
824.520,777.000
831.622,747.000
838.716,736.000
845.806,723.000
852.890,735.000
859.968,734.000
867.040,735.000
874.106,731.000
881.168,744.000
888.226,736.000
895.276,736.000
902.321,731.000
909.360,731.000
916.393,723.000
923.422,730.000
930.444,736.000
937.461,725.000
944.475,727.000
951.481,724.000
958.482,728.000
965.476,728.000
972.466,717.000
979.451,735.000
986.428,739.000
993.402,729.000
1000.369,736.000
1007.333,732.000
1014.290,742.000
1021.241,743.000
1028.188,736.000
1035.128,732.000
1042.063,729.000
1048.994,739.000
1055.917,732.000
1062.838,747.000
1069.752,735.000
1076.660,737.000
1083.562,746.000
1090.460,734.000
1097.351,735.000
1104.238,756.000
1111.120,746.000
1117.995,747.000
1124.867,743.000
1131.733,728.000
1138.593,731.000
1145.447,744.000
1152.297,741.000
1159.141,746.000
1165.979,731.000
1172.813,743.000
1179.641,743.000
1186.465,745.000
1193.282,752.000
1200.095,740.000
1206.902,744.000
1213.703,748.000
1220.499,748.000
1227.291,748.000
1234.076,740.000
1240.858,747.000
1247.634,746.000
1254.405,743.000
1261.170,750.000
1267.929,747.000
1274.683,742.000
1281.433,747.000
1288.177,753.000
1294.916,762.000
1301.652,745.000
1308.380,740.000
1315.104,752.000
1321.822,747.000
1328.535,739.000
1335.243,756.000
1341.946,758.000
1348.643,747.000
1355.337,749.000
1362.025,755.000
1368.707,765.000
1375.384,755.000
1382.057,746.000
1388.723,760.000
1395.385,746.000
1402.042,757.000
1408.692,749.000
1415.341,750.000
1421.982,755.000
1428.619,770.000
1435.250,744.000
1441.877,755.000
1448.497,761.000
1455.114,756.000
1461.725,766.000
1468.331,755.000
1474.934,754.000
1481.530,750.000
1488.120,759.000
1494.707,751.000
1501.287,769.000
1507.863,761.000
1514.435,761.000
1521.001,777.000
1527.561,761.000
1534.118,787.000
1540.670,780.000
1547.216,783.000
1553.756,763.000
1560.293,765.000
1566.824,768.000
1573.350,767.000
1579.872,766.000
1586.390,768.000
1592.901,760.000
1599.408,771.000
1605.909,768.000
1612.405,760.000
1618.898,760.000
1625.384,768.000
1631.866,756.000
1638.345,757.000
1644.816,758.000
1651.285,765.000
1657.747,766.000
1664.204,764.000
1670.656,770.000
1677.104,769.000
1683.548,765.000
1689.986,758.000
1696.420,776.000
1702.848,773.000
1709.272,763.000
1715.691,760.000
1722.105,754.000
1728.514,754.000
1734.918,755.000
1741.318,767.000
1747.712,780.000
1754.104,778.000
1760.489,768.000
1766.870,771.000
1773.245,764.000
1779.616,772.000
1785.982,775.000
1792.343,779.000
1798.700,767.000
1805.052,769.000
1811.400,779.000
1816.157,772.000