Folder: Data/Raman/Silica (part 29)

File: 2025_08_22_BB1392_SiO2_8wtPctH2O_Glass_50X_532nm_6mW_Kymera328_300gv_3000wn_3accum_60s_Unpol.csv
-1027.971,3135.000,3152.000,3141.000
-988.527,3162.000,3152.000,3154.000
-949.242,3189.000,3172.000,3191.000
-910.112,3191.000,3193.000,3186.000
-871.134,3199.000,3189.000,3202.000
-832.312,3217.000,3227.000,3206.000
-793.643,3253.000,3244.000,3226.000
-755.126,3250.000,3256.000,3258.000
-716.759,3301.000,3707.000,3285.000
-678.542,3317.000,3327.000,3314.000
-640.479,3364.000,3374.000,3352.000
-602.559,3446.000,3444.000,3434.000
-564.789,3567.000,3545.000,3557.000
-527.164,3807.000,3806.000,3806.000
-489.688,4342.000,4316.000,4298.000
-452.355,4687.000,4666.000,4682.000
-415.165,4830.000,4871.000,4856.000
-378.122,4976.000,4945.000,4963.000
-341.221,5037.000,5054.000,5033.000
-304.460,5224.000,5197.000,6360.000
-267.840,5460.000,5478.000,5398.000
-231.358,5772.000,5814.000,5775.000
-195.022,6387.000,6396.000,6351.000
-158.818,7284.000,7293.000,7313.000
-122.755,8792.000,8743.000,8748.000
-86.827,11126.000,11029.000,10959.000
-51.039,14039.000,13949.000,14040.000
-15.382,36893.000,36410.000,36481.000
20.139,52472.000,52177.000,52818.000
55.524,61473.000,61249.000,61658.000
90.779,65535.000,65535.000,65535.000
125.899,42721.000,42656.000,42770.000
160.890,14588.000,14327.000,14419.000
195.746,11626.000,11550.000,11518.000
230.476,11044.000,10928.000,10916.000
265.077,10942.000,10749.000,10830.000
299.547,11191.000,11219.000,11123.000
333.888,11867.000,11729.000,11642.000
368.102,12636.000,12409.000,12387.000
402.192,13358.000,13257.000,13190.000
436.157,14610.000,14145.000,14088.000
469.991,15302.000,15208.000,15192.000
503.705,13610.000,13193.000,13170.000
537.295,10244.000,10303.000,10316.000
570.762,8432.000,8385.000,8264.000
604.103,7423.000,7343.000,7317.000
637.326,6866.000,6711.000,6712.000
670.426,6563.000,6459.000,6397.000
703.408,6386.000,6333.000,6238.000
736.267,6333.000,6275.000,6174.000
769.008,6539.000,6455.000,6413.000
801.632,6842.000,6711.000,6711.000
834.134,6568.000,6380.000,6371.000
866.524,6238.000,6185.000,6084.000
898.796,6422.000,6288.000,6119.000
930.951,6900.000,6683.000,6711.000
962.991,7496.000,7390.000,7314.000
994.915,7224.000,7042.000,7030.000
1026.727,6778.000,6690.000,6612.000
1058.424,6503.000,6452.000,6322.000
1090.008,6472.000,6346.000,6283.000
1121.480,6397.000,6254.000,6188.000
1152.842,6304.000,6193.000,6165.000
1184.092,6303.000,6136.000,6125.000
1215.230,6042.000,5907.000,5866.000
1246.260,5974.000,5882.000,5773.000
1277.179,5899.000,5745.000,5690.000
1307.992,5868.000,5732.000,5673.000
1338.694,5939.000,5782.000,5741.000
1369.289,6029.000,5793.000,5758.000
1399.779,5978.000,5882.000,5813.000
1430.161,6032.000,5915.000,5840.000
1460.436,6130.000,5942.000,5938.000
1490.606,6226.000,6095.000,5973.000
1520.672,6338.000,6054.000,6073.000
1550.635,6369.000,6180.000,6098.000
1580.490,6422.000,6339.000,6177.000
1610.246,6571.000,6433.000,6249.000
1639.897,6548.000,6389.000,6287.000
1669.446,6472.000,6298.000,6223.000
1698.894,6486.000,6238.000,6136.000
1728.242,6504.000,6257.000,6192.000
1757.489,6451.000,6321.000,6229.000
1786.634,6568.000,6344.000,6171.000
1815.682,6517.000,6373.000,6263.000
1844.629,6603.000,6398.000,6247.000
1873.479,6661.000,6484.000,6358.000
1902.231,6746.000,6571.000,6366.000
1930.883,6740.000,6562.000,6407.000
1959.441,6801.000,6631.000,6514.000
1987.901,6836.000,6614.000,6522.000
2016.264,6888.000,6693.000,6590.000
2044.532,6907.000,6728.000,6602.000
2072.707,6941.000,6737.000,6659.000
2100.785,7104.000,6853.000,6723.000
2128.769,7097.000,6870.000,6838.000
2156.662,7148.000,6861.000,6771.000
2184.459,7167.000,6961.000,6877.000
2212.165,7195.000,7030.000,6862.000
2239.776,7236.000,7070.000,6945.000
2267.299,7274.000,7160.000,7008.000
2294.729,7431.000,7194.000,7139.000
2322.066,7630.000,7332.000,7256.000
2349.315,7635.000,7391.000,7275.000
2376.473,7803.000,7518.000,7383.000
2403.543,7844.000,7727.000,7500.000
2430.521,7896.000,7585.000,7482.000
2457.413,7998.000,7532.000,7545.000
2484.215,8018.000,7728.000,7482.000
2510.932,8050.000,7859.000,7695.000
2537.559,8183.000,7868.000,7778.000
2564.099,8134.000,7848.000,7689.000
2590.555,8233.000,7980.000,7911.000
2616.923,8252.000,8079.000,7908.000
2643.205,8322.000,8156.000,7958.000
2669.403,8446.000,8194.000,8022.000
2695.516,8576.000,8222.000,8016.000
2721.544,8427.000,8254.000,8155.000
2747.486,8600.000,8385.000,8232.000
2773.348,8708.000,8487.000,8255.000
2799.124,8842.000,8459.000,8467.000
2824.821,8931.000,8600.000,8518.000
2850.431,9005.000,8847.000,8693.000
2875.962,9287.000,8970.000,8941.000
2901.412,9423.000,9112.000,8986.000
2926.776,9631.000,9398.000,9191.000
2952.064,9791.000,9488.000,9350.000
2977.269,10052.000,9615.000,9455.000
3002.396,9990.000,9717.000,9676.000
3027.442,10289.000,9896.000,9773.000
3052.408,10317.000,10044.000,9946.000
3077.298,10705.000,10345.000,10157.000
3102.106,10760.000,10548.000,10407.000
3126.837,10933.000,10674.000,10426.000
3151.492,11205.000,10866.000,10832.000
3176.067,11352.000,11124.000,10868.000
3200.565,11610.000,11242.000,11064.000
3224.987,11872.000,11570.000,11431.000
3249.334,12145.000,11928.000,11531.000
3273.603,12198.000,12025.000,11834.000
3297.798,12442.000,12148.000,12053.000
3321.915,12671.000,12373.000,12292.000
3345.960,12771.000,12550.000,12480.000
3369.930,13116.000,12826.000,12683.000
3393.825,13347.000,12984.000,12784.000
3417.645,13407.000,13115.000,13011.000
3441.392,13565.000,13290.000,13186.000
3465.068,13678.000,13325.000,13194.000
3488.670,13920.000,13601.000,13564.000
3512.197,13970.000,13852.000,13608.000
3535.655,14519.000,14127.000,13928.000
3559.039,14936.000,14562.000,14406.000
3582.352,15333.000,15067.000,14913.000
3605.593,14946.000,14615.000,14562.000
3628.765,14702.000,14566.000,14282.000
3651.866,14207.000,14003.000,13811.000
3674.895,13569.000,13236.000,13058.000
3697.857,12735.000,12535.000,12248.000
3720.747,12475.000,12231.000,11966.000
3743.569,12225.000,12009.000,11914.000
3766.319,12311.000,12010.000,11875.000
3789.004,12297.000,12030.000,11837.000
3811.621,12362.000,12087.000,11896.000
3834.167,12340.000,12000.000,11915.000
3856.647,12352.000,12092.000,11923.000
3879.058,12479.000,12251.000,12017.000
3901.404,12562.000,12324.000,12062.000
3923.684,12505.000,12380.000,12289.000
3945.893,12595.000,12494.000,12216.000
3968.038,12770.000,12539.000,12385.000
3990.118,12894.000,12626.000,12534.000
4012.134,13077.000,12582.000,12434.000
4034.080,12931.000,12570.000,12384.000
4055.964,12965.000,12703.000,12560.000
4077.783,12887.000,12823.000,12564.000
4099.536,12867.000,12707.000,12572.000
4121.226,12923.000,12710.000,12476.000
4142.852,13057.000,12672.000,12566.000
4164.415,12918.000,12711.000,12599.000
4185.913,12997.000,12603.000,12603.000
4207.349,12961.000,12748.000,12542.000
4228.723,12895.000,12792.000,12524.000
4250.033,13068.000,12717.000,12598.000
4271.280,13052.000,12743.000,12630.000
4292.468,13116.000,12912.000,12768.000
4313.592,13118.000,12916.000,12756.000
4334.655,13080.000,12814.000,12887.000
4355.657,13082.000,13000.000,12777.000
4376.597,13038.000,12962.000,12874.000
4397.479,12941.000,12786.000,12693.000
4418.300,12862.000,12643.000,12468.000
4439.058,12796.000,12595.000,12373.000
4459.759,12935.000,12716.000,12520.000
4480.399,12838.000,12700.000,12427.000
4500.980,12791.000,12638.000,12367.000
4521.502,12611.000,12455.000,12458.000
4541.965,12512.000,12304.000,12212.000
4562.370,12600.000,12272.000,12151.000
4582.715,12400.000,12320.000,12031.000
4603.004,12649.000,12371.000,12171.000
4623.234,12516.000,12153.000,12129.000
4643.407,12417.000,12217.000,12141.000
4663.522,12199.000,12171.000,12051.000
4683.581,12273.000,11902.000,11795.000
4703.582,12072.000,11805.000,11713.000
4723.528,12048.000,11899.000,11592.000
4743.415,11864.000,11728.000,11639.000
4763.248,12057.000,11822.000,11653.000
4783.024,11809.000,11642.000,11479.000
4802.746,11655.000,11563.000,11373.000
4822.410,11585.000,11414.000,11362.000
4842.021,11505.000,11361.000,11167.000
4861.577,11488.000,11228.000,11185.000
4881.077,11370.000,11215.000,10974.000
4900.523,11334.000,11170.000,11045.000
4919.915,11186.000,10899.000,11006.000
4939.251,11122.000,11070.000,10900.000
4958.537,11152.000,11081.000,10922.000
4977.766,11122.000,10864.000,10808.000
4996.943,11016.000,10738.000,10756.000
5016.067,10936.000,10781.000,10761.000
5035.138,10829.000,10625.000,10576.000
5054.156,10624.000,10433.000,10349.000
5073.122,10594.000,10316.000,10417.000
5092.035,10530.000,10315.000,10366.000
5110.895,10451.000,10243.000,10068.000
5129.704,10386.000,10164.000,10036.000
5148.464,10197.000,10007.000,10015.000
5167.170,10177.000,10007.000,9946.000
5185.825,9980.000,9877.000,9714.000
5204.428,9771.000,9754.000,9624.000
5222.982,9748.000,9680.000,9566.000
5241.485,9619.000,9478.000,9412.000
5259.937,9659.000,9339.000,9379.000
5278.340,9529.000,9300.000,9332.000
5296.692,9492.000,9398.000,9404.000
5314.995,9489.000,9307.000,9332.000
5333.247,9426.000,9331.000,9313.000
5351.451,9348.000,9237.000,9092.000
5369.606,9307.000,9188.000,9196.000
5387.711,9160.000,8937.000,8952.000
5405.768,9167.000,9025.000,8872.000
5423.777,8947.000,8949.000,8752.000
5441.736,9039.000,8759.000,8770.000
5459.648,8788.000,8781.000,8662.000
5477.510,8722.000,8573.000,8539.000
5495.328,8581.000,8488.000,8488.000
5513.095,8476.000,8389.000,8413.000
5530.816,8446.000,8273.000,8290.000
5548.489,8329.000,8207.000,8205.000
5566.116,8388.000,8160.000,8149.000
5583.697,8276.000,8155.000,8132.000
5601.228,8205.000,8130.000,8153.000
5618.716,8138.000,8014.000,7985.000
5636.157,8086.000,7970.000,7928.000
5653.551,7991.000,7876.000,7813.000
5666.567,7974.000,7918.000,7844.000

File: 2025_08_22_BB1392_SiO2_8wtPctH2O_Glass_50X_532nm_6mW_Kymera328_600gv_1000wn_3accum_30s_Unpol_Pos2.csv
-1248.401,3034.000,3038.000,3032.000
-1228.692,3034.000,3034.000,3029.000
-1209.018,3039.000,3033.000,3035.000
-1189.383,3035.000,3038.000,3029.000
-1169.788,3035.000,3035.000,3042.000
-1150.233,3039.000,3037.000,3040.000
-1130.715,3042.000,3039.000,3041.000
-1111.234,3044.000,3032.000,3040.000
-1091.790,3038.000,3038.000,3034.000
-1072.386,3035.000,3039.000,3044.000
-1053.019,3032.000,3041.000,3039.000
-1033.689,3043.000,3035.000,3038.000
-1014.397,3035.000,3035.000,3026.000
-995.144,3043.000,3036.000,3042.000
-975.929,3039.000,3046.000,3040.000
-956.748,3045.000,3054.000,3044.000
-937.607,3048.000,3040.000,3041.000
-918.501,3039.000,3042.000,3053.000
-899.432,3041.000,3044.000,3047.000
-880.403,3043.000,3049.000,3048.000
-861.409,3041.000,3040.000,3042.000
-842.449,3043.000,3045.000,3046.000
-823.527,3050.000,3050.000,3059.000
-804.645,3052.000,3054.000,3054.000
-785.795,3047.000,3057.000,3050.000
-766.984,3050.000,3046.000,3042.000
-748.206,3052.000,3053.000,3054.000
-729.467,3046.000,3053.000,3054.000
-710.763,3052.000,3048.000,3050.000
-692.092,3048.000,3055.000,3052.000
-673.460,3061.000,3060.000,3062.000
-654.862,3063.000,3066.000,3064.000
-636.301,3059.000,3064.000,3071.000
-617.775,3074.000,3077.000,3074.000
-599.284,3084.000,3079.000,3081.000
-580.829,3085.000,3092.000,3090.000
-562.408,3111.000,3106.000,3099.000
-544.022,3116.000,3118.000,3112.000
-525.672,3156.000,3171.000,3172.000
-507.354,3237.000,3249.000,3245.000
-489.073,3332.000,3331.000,3339.000
-470.826,3366.000,3383.000,3360.000
-452.614,3383.000,3362.000,3366.000
-434.436,3379.000,3383.000,3380.000
-416.292,3391.000,3409.000,3400.000
-398.183,3393.000,3395.000,3387.000
-380.108,3417.000,3413.000,3391.000
-362.067,3425.000,3441.000,3432.000
-344.058,3442.000,3415.000,3443.000
-326.084,3481.000,3470.000,3444.000
-308.145,3468.000,3484.000,3487.000
-290.239,3510.000,3509.000,3515.000
-272.366,3530.000,3533.000,3560.000
-254.527,3567.000,3567.000,3588.000
-236.722,3625.000,3640.000,3598.000
-218.949,3694.000,3670.000,3678.000
-201.209,3788.000,3771.000,3792.000
-183.504,3843.000,3842.000,3882.000
-165.828,4007.000,4048.000,4005.000
-148.188,4172.000,4185.000,4172.000
-130.580,4436.000,4408.000,4407.000
-113.005,4714.000,4746.000,4643.000
-95.462,5014.000,5045.000,5037.000
-77.953,5412.000,5370.000,5360.000
-60.476,5723.000,5626.000,5742.000
-43.031,5793.000,5856.000,5837.000
-25.618,6029.000,5988.000,5967.000
-8.237,9052.000,8977.000,8953.000
9.114,11749.000,11725.000,11727.000
26.430,11699.000,11766.000,11622.000
43.715,10056.000,9873.000,9902.000
60.967,6942.000,6964.000,6977.000
78.189,6237.000,6249.000,6263.000
95.379,5958.000,5999.000,5882.000
112.536,5688.000,5696.000,5657.000
129.663,5403.000,5397.000,5346.000
146.757,5237.000,5239.000,5212.000
163.824,5070.000,5070.000,5079.000
180.857,4887.000,4901.000,4912.000
197.858,4881.000,4827.000,4887.000
214.829,4805.000,4825.000,4843.000
231.768,4820.000,4791.000,4834.000
248.677,4816.000,4833.000,4785.000
265.555,4822.000,4831.000,4847.000
282.402,4889.000,4884.000,4848.000
299.218,4960.000,4946.000,4948.000
316.007,4939.000,4947.000,5048.000
332.762,5087.000,5095.000,5080.000
349.488,5154.000,5251.000,5154.000
366.183,5299.000,5323.000,5318.000
382.848,5398.000,5401.000,5375.000
399.482,5471.000,5493.000,5482.000
416.088,5617.000,5658.000,5619.000
432.662,5818.000,5784.000,5835.000
449.207,6021.000,6018.000,6056.000
465.723,6221.000,6296.000,6252.000
482.208,6140.000,6183.000,6222.000
498.666,5538.000,5526.000,5481.000
515.092,4747.000,4728.000,4696.000
531.489,4355.000,4264.000,4305.000
547.856,4022.000,4070.000,4055.000
564.194,3891.000,3884.000,3878.000
580.503,3760.000,3790.000,3792.000
596.783,3705.000,3698.000,3690.000
613.033,3604.000,3613.000,3621.000
629.255,3565.000,3548.000,3565.000
645.449,3525.000,3527.000,3536.000
661.613,3494.000,3493.000,3507.000
677.749,3475.000,3452.000,3466.000
693.855,3451.000,3466.000,3470.000
709.933,3446.000,3436.000,3444.000
725.983,3449.000,3443.000,3439.000
742.003,3443.000,3439.000,3466.000
757.996,3494.000,3510.000,3488.000
773.960,3624.000,3627.000,3634.000
789.897,3692.000,3701.000,3724.000
805.805,3695.000,3695.000,3702.000
821.686,3591.000,3603.000,3613.000
837.537,3481.000,3487.000,3476.000
853.361,3399.000,3392.000,3406.000
869.156,3376.000,3391.000,3378.000
884.925,3408.000,3411.000,3398.000
900.665,3460.000,3448.000,3474.000
916.378,3532.000,3538.000,3520.000
932.063,3629.000,3589.000,3579.000
947.723,3785.000,3757.000,3771.000
963.353,3895.000,3879.000,3873.000
978.956,3809.000,3772.000,3827.000
994.532,3599.000,3597.000,3608.000
1010.081,3499.000,3476.000,3476.000
1025.601,3439.000,3429.000,3422.000
1041.096,3419.000,3427.000,3415.000
1056.563,3405.000,3418.000,3400.000
1072.003,3364.000,3357.000,3383.000
1087.416,3314.000,3310.000,3307.000
1102.805,3279.000,3267.000,3275.000
1118.165,3271.000,3261.000,3281.000
1133.498,3275.000,3278.000,3274.000
1148.806,3303.000,3301.000,3308.000
1164.085,3306.000,3292.000,3286.000
1179.339,3281.000,3295.000,3294.000
1194.566,3309.000,3308.000,3298.000
1209.768,3295.000,3271.000,3279.000
1224.942,3265.000,3263.000,3260.000
1240.093,3231.000,3235.000,3204.000
1255.216,3187.000,3205.000,3210.000
1270.313,3213.000,3198.000,3200.000
1285.383,3179.000,3188.000,3176.000
1300.427,3180.000,3174.000,3168.000
1315.447,3166.000,3182.000,3174.000
1330.440,3179.000,3170.000,3184.000
1345.408,3174.000,3173.000,3155.000
1360.350,3186.000,3193.000,3186.000
1375.267,3210.000,3210.000,3224.000
1390.158,3179.000,3188.000,3191.000
1405.023,3169.000,3172.000,3180.000
1419.864,3178.000,3194.000,3188.000
1434.679,3169.000,3165.000,3186.000
1449.468,3177.000,3168.000,3170.000
1464.232,3190.000,3160.000,3187.000
1478.971,3189.000,3190.000,3195.000
1493.685,3188.000,3175.000,3196.000
1508.374,3187.000,3186.000,3187.000
1523.038,3185.000,3195.000,3195.000
1537.679,3191.000,3208.000,3187.000
1552.294,3198.000,3212.000,3209.000
1566.883,3206.000,3209.000,3221.000
1581.449,3224.000,3230.000,3212.000
1595.990,3243.000,3249.000,3222.000
1610.505,3236.000,3240.000,3227.000
1624.997,3231.000,3232.000,3239.000
1639.464,3215.000,3216.000,3219.000
1653.907,3212.000,3204.000,3208.000
1668.328,3199.000,3193.000,3198.000
1682.721,3186.000,3185.000,3183.000
1697.092,3199.000,3190.000,3185.000
1711.437,3178.000,3174.000,3189.000
1725.759,3184.000,3187.000,3179.000
1740.057,3166.000,3180.000,3189.000
1754.331,3174.000,3173.000,3190.000
1768.581,3185.000,3162.000,3178.000
1782.807,3154.000,3186.000,3185.000
1797.012,3173.000,3183.000,3171.000
1811.190,3190.000,3188.000,3172.000
1825.346,3158.000,3180.000,3187.000
1839.478,3172.000,3279.000,3169.000
1853.585,3188.000,3189.000,3187.000
1867.670,3166.000,3181.000,3193.000
1881.731,3170.000,3172.000,3179.000
1895.769,3191.000,3177.000,3183.000
1909.784,3190.000,3191.000,3183.000
1923.777,3186.000,3193.000,3183.000
1937.744,3182.000,3191.000,3197.000
1951.691,3187.000,3203.000,3182.000
1965.613,3196.000,3183.000,3192.000
1979.512,3203.000,3193.000,3195.000
1993.388,3181.000,3187.000,3179.000
2007.242,3201.000,3183.000,3193.000
2021.072,3207.000,3180.000,3191.000
2034.880,3200.000,3190.000,3189.000
2048.665,3187.000,3196.000,3186.000
2062.427,3203.000,3187.000,3188.000
2076.168,3181.000,3176.000,3202.000
2089.885,3184.000,3201.000,3199.000
2103.580,3198.000,3209.000,3196.000
2117.252,3205.000,3186.000,3786.000
2130.902,3216.000,3195.000,3203.000
2144.529,3204.000,3196.000,3196.000
2158.135,3204.000,3194.000,3195.000
2171.718,3219.000,3201.000,3217.000
2185.279,3200.000,3196.000,3207.000
2198.820,3187.000,3209.000,3208.000
2212.337,3197.000,3210.000,3195.000
2225.831,3200.000,3219.000,3215.000
2239.304,3218.000,3211.000,3206.000
2252.755,3195.000,3203.000,3210.000
2266.184,3215.000,3204.000,3206.000
2279.591,3197.000,3203.000,3207.000
2292.977,3201.000,3228.000,3188.000
2306.341,3211.000,3223.000,3193.000
2319.684,3204.000,3207.000,3203.000
2333.006,3228.000,3225.000,3222.000
2346.305,3214.000,3228.000,3219.000
2359.582,3197.000,3207.000,3210.000
2372.838,3202.000,3213.000,3209.000
2386.074,3219.000,3217.000,3209.000
2399.287,3197.000,3205.000,3220.000
2412.480,3220.000,3209.000,3207.000
2425.651,3227.000,3216.000,3214.000
2438.800,3218.000,3234.000,3232.000
2451.930,3212.000,3228.000,3224.000
2465.039,3234.000,3217.000,3212.000
2478.125,3208.000,3209.000,3221.000
2491.192,3230.000,3231.000,3226.000
2504.236,3220.000,3233.000,3225.000
2517.261,3225.000,3221.000,3226.000
2530.264,3235.000,3235.000,3236.000
2543.247,3229.000,3241.000,3220.000
2556.209,3226.000,3227.000,3229.000
2569.149,3234.000,3223.000,3248.000
2582.072,3223.000,3240.000,3250.000
2594.972,3255.000,3229.000,3233.000
2607.852,3240.000,3244.000,3248.000
2620.711,3237.000,3249.000,3253.000
2633.549,3250.000,3235.000,3232.000
2646.368,3255.000,3247.000,3237.000
2659.165,3250.000,3254.000,3253.000
2671.943,3261.000,3252.000,3266.000
2684.701,3281.000,3265.000,3244.000
2697.439,3254.000,3257.000,3247.000
2710.156,3284.000,3252.000,3274.000
2722.854,3276.000,3277.000,3268.000
2735.530,3289.000,3280.000,3293.000
2748.188,3294.000,3280.000,3277.000
2760.825,3318.000,3306.000,3298.000
2773.442,3338.000,3306.000,3321.000
2782.893,3313.000,3309.000,3356.000