Folder: Data/Raman/Silica (part 23)

File: 2025_08_22_AbNTS_MA10_S21_10GPa_Glass_50X_532nm_12mW_Kymera328_600gv_2000wn_3accum_30s_UnPol_Pos2.csv
19.981,35589.000,35731.000,35646.000
37.206,22604.000,22559.000,22657.000
54.398,15798.000,15778.000,15853.000
71.561,16296.000,16124.000,16339.000
88.692,16637.000,16719.000,16590.000
105.792,16569.000,16669.000,16632.000
122.858,16321.000,16296.000,16235.000
139.896,15771.000,15543.000,15647.000
156.902,15102.000,15059.000,15121.000
173.875,14547.000,14581.000,14432.000
190.821,14001.000,14128.000,13990.000
207.733,13648.000,13605.000,13514.000
224.615,13083.000,13113.000,13076.000
241.467,12918.000,12859.000,12833.000
258.289,12689.000,12708.000,12590.000
275.081,12552.000,12555.000,12578.000
291.839,12533.000,12632.000,12527.000
308.570,12646.000,12717.000,12644.000
325.271,12857.000,12799.000,12751.000
341.938,13105.000,13085.000,13082.000
358.579,13456.000,13458.000,13351.000
375.189,13696.000,13582.000,13696.000
391.770,14000.000,14023.000,14166.000
408.318,14532.000,14532.000,14352.000
424.839,14932.000,14835.000,14816.000
441.330,15512.000,15322.000,15260.000
457.790,16004.000,15972.000,15914.000
474.222,16574.000,16661.000,16456.000
490.624,16984.000,16999.000,16956.000
506.995,17258.000,17292.000,17148.000
523.340,17043.000,17231.000,17028.000
539.654,16314.000,16349.000,16286.000
555.940,15498.000,18236.000,15511.000
572.195,14918.000,14938.000,14850.000
588.423,14629.000,14835.000,14552.000
604.621,14671.000,14640.000,14388.000
620.790,13794.000,13741.000,13772.000
636.931,12198.000,12183.000,12099.000
653.044,10874.000,10838.000,10871.000
669.128,9987.000,9965.000,9930.000
685.182,9311.000,9322.000,9353.000
701.210,8936.000,8935.000,8798.000
717.209,8587.000,8720.000,8568.000
733.177,8543.000,8493.000,8512.000
749.119,8464.000,8548.000,8385.000
765.033,8714.000,8629.000,8646.000
780.920,8806.000,8835.000,8733.000
796.776,8814.000,8868.000,8702.000
812.606,8585.000,8549.000,8543.000
828.410,8040.000,8115.000,8084.000
844.183,7596.000,7539.000,7493.000
859.930,7168.000,7205.000,7191.000
875.650,7082.000,7103.000,7010.000
891.339,7269.000,7242.000,7187.000
907.004,7455.000,7486.000,7351.000
922.642,7752.000,7783.000,7687.000
938.251,8242.000,8176.000,8129.000
953.832,8696.000,8715.000,8558.000
969.388,8923.000,9046.000,8819.000
984.916,9162.000,9073.000,9084.000
1000.416,9543.000,9460.000,9399.000
1015.891,10200.000,10024.000,10010.000
1031.338,11129.000,11143.000,11079.000
1046.757,12441.000,12268.000,12386.000
1062.151,14145.000,14214.000,14035.000
1077.519,15599.000,15437.000,15480.000
1092.859,16181.000,16073.000,16003.000
1108.171,16348.000,16319.000,16142.000
1123.459,15561.000,17017.000,15411.000
1138.721,14477.000,14428.000,14408.000
1153.954,13106.000,13064.000,12953.000
1169.162,11618.000,11681.000,11543.000
1184.345,10444.000,10465.000,10222.000
1199.501,9449.000,9327.000,9306.000
1214.629,8676.000,8614.000,8437.000
1229.734,8125.000,8106.000,8018.000
1244.812,7843.000,7852.000,7759.000
1259.864,7642.000,7635.000,7627.000
1274.889,7663.000,7634.000,7551.000
1289.891,7654.000,7579.000,7540.000
1304.866,7616.000,7552.000,7575.000
1319.814,7549.000,7640.000,7606.000
1334.738,7704.000,7617.000,7596.000
1349.637,7767.000,7699.000,7707.000
1364.509,7818.000,7758.000,7697.000
1379.357,7859.000,7794.000,7773.000
1394.180,7927.000,7937.000,7802.000
1408.978,7898.000,7925.000,7901.000
1423.747,8187.000,8028.000,8019.000
1438.495,8282.000,8268.000,8096.000
1453.218,8256.000,8148.000,8101.000
1467.913,8243.000,8315.000,8205.000
1482.586,8324.000,8378.000,8305.000
1497.233,8304.000,8437.000,8306.000
1511.854,8511.000,8478.000,8462.000
1526.452,8634.000,8481.000,8451.000
1541.026,8640.000,8635.000,8545.000
1555.575,8724.000,8712.000,8621.000
1570.098,8847.000,8771.000,8666.000
1584.598,8805.000,8720.000,8665.000
1599.073,8822.000,8841.000,8659.000
1613.523,8881.000,8781.000,8749.000
1627.950,8932.000,8800.000,8621.000
1642.353,8853.000,8737.000,8782.000
1656.729,8890.000,8919.000,8704.000
1671.084,8874.000,8738.000,8751.000
1685.415,8913.000,8900.000,8780.000
1699.721,8966.000,8812.000,8731.000
1714.002,8819.000,8843.000,8756.000
1728.262,8904.000,9000.000,8824.000
1742.497,8887.000,8894.000,8763.000
1756.707,8984.000,8947.000,8854.000
1770.894,8987.000,9067.000,8859.000
1785.059,9143.000,9049.000,9004.000
1799.198,9168.000,9034.000,9015.000
1813.314,9199.000,9160.000,8985.000
1827.408,9210.000,9123.000,9066.000
1841.478,9308.000,9263.000,9216.000
1855.524,9377.000,9315.000,9310.000
1869.547,9415.000,9385.000,9231.000
1883.547,9553.000,9361.000,9361.000
1897.525,9614.000,9457.000,9443.000
1911.477,9737.000,9505.000,9569.000
1925.409,9748.000,9601.000,9605.000
1939.317,9760.000,9635.000,9511.000
1953.201,9713.000,9739.000,9559.000
1967.063,9867.000,9789.000,9727.000
1980.903,9956.000,9823.000,9621.000
1994.718,9915.000,9843.000,9797.000
2008.513,9883.000,9874.000,9767.000
2022.284,10086.000,9791.000,9858.000
2036.031,10149.000,9892.000,9831.000
2049.758,10078.000,10002.000,9883.000
2063.462,10168.000,10012.000,10012.000
2077.145,10226.000,10197.000,10053.000
2090.802,10259.000,10224.000,10128.000
2104.439,10369.000,10257.000,10070.000
2118.054,10276.000,10237.000,10168.000
2131.644,10349.000,10270.000,10195.000
2145.215,10393.000,10356.000,10262.000
2158.763,10446.000,10414.000,10278.000
2172.290,10478.000,10471.000,10381.000
2185.793,10589.000,10405.000,10444.000
2199.275,10592.000,10506.000,10463.000
2212.736,10672.000,10590.000,10367.000
2226.174,10809.000,10681.000,10541.000
2239.591,10771.000,10663.000,10595.000
2252.985,10859.000,10741.000,10688.000
2266.359,10824.000,10758.000,10640.000
2279.710,10967.000,10875.000,10674.000
2293.040,10946.000,10728.000,10847.000
2306.349,11115.000,10921.000,10819.000
2319.635,11067.000,10980.000,10903.000
2332.901,11102.000,11048.000,11030.000
2346.147,11231.000,11152.000,11106.000
2359.370,11198.000,11186.000,11119.000
2372.571,11339.000,11132.000,11153.000
2385.751,11467.000,11390.000,11248.000
2398.912,11434.000,11298.000,11182.000
2412.048,11541.000,11364.000,11247.000
2425.167,11642.000,11447.000,11353.000
2438.264,11509.000,11456.000,11397.000
2451.339,11677.000,11579.000,11426.000
2464.393,11532.000,11510.000,11382.000
2477.427,11730.000,11551.000,11423.000
2490.440,11771.000,11632.000,11496.000
2503.432,11848.000,11652.000,11575.000
2516.404,11836.000,11769.000,11685.000
2529.355,11967.000,11772.000,11716.000
2542.284,11873.000,11961.000,11774.000
2555.195,11913.000,12038.000,11834.000
2568.084,11968.000,11861.000,11806.000
2580.952,12100.000,11919.000,11896.000
2593.800,12112.000,12063.000,11977.000
2606.629,12181.000,12052.000,12046.000
2619.437,12218.000,12025.000,12119.000
2632.224,12311.000,12153.000,12134.000
2644.992,12464.000,12095.000,11959.000
2657.739,12389.000,12296.000,12064.000
2670.466,12398.000,12362.000,12179.000
2683.172,12502.000,12294.000,12253.000
2695.861,12482.000,12321.000,12248.000
2708.528,12510.000,12418.000,12153.000
2721.174,12419.000,12285.000,12295.000
2733.801,12559.000,12383.000,12343.000
2746.409,12510.000,12464.000,12440.000
2758.996,12536.000,12494.000,12422.000
2771.564,12631.000,12454.000,12485.000
2784.114,12581.000,12476.000,12567.000
2796.642,12841.000,12704.000,12634.000
2809.150,12908.000,12592.000,12546.000
2821.640,19234.000,12851.000,12620.000
2834.111,12938.000,12970.000,12764.000
2846.560,13148.000,13075.000,12856.000
2858.992,13218.000,13048.000,13024.000
2871.404,13356.000,13267.000,13188.000
2883.797,13395.000,13290.000,13225.000
2896.169,13467.000,13440.000,13319.000
2908.523,13509.000,13486.000,13550.000
2920.859,13594.000,13589.000,13454.000
2933.173,13808.000,13709.000,13591.000
2945.470,13874.000,13749.000,13769.000
2957.748,13830.000,13769.000,13899.000
2970.006,13935.000,13902.000,13724.000
2982.246,14141.000,13995.000,13912.000
2994.467,14098.000,13853.000,13800.000
3006.667,14018.000,13846.000,13982.000
3018.851,14132.000,14226.000,14038.000
3031.016,14221.000,13963.000,14095.000
3043.161,14212.000,14074.000,14042.000
3055.287,14101.000,14171.000,14090.000
3067.395,14297.000,14183.000,14124.000
3079.485,14447.000,14247.000,14198.000
3091.555,14236.000,14395.000,14299.000
3103.608,14379.000,14280.000,14171.000
3115.643,14463.000,14509.000,14363.000
3127.658,14635.000,14615.000,14394.000
3139.654,14665.000,14589.000,14474.000
3151.634,14693.000,14677.000,14627.000
3163.594,14845.000,14688.000,14519.000
3175.535,14766.000,14649.000,14647.000
3187.459,14901.000,14793.000,14720.000
3199.365,14966.000,14896.000,14767.000
3211.253,15121.000,14980.000,14846.000
3223.122,15006.000,15199.000,15024.000
3234.974,15291.000,15203.000,15047.000
3246.808,15383.000,15291.000,15202.000
3258.622,15500.000,15302.000,15388.000
3270.419,15476.000,15477.000,15422.000
3282.199,15780.000,15562.000,15572.000
3293.962,15696.000,15537.000,15576.000
3305.705,15734.000,15684.000,15453.000
3317.431,15761.000,15717.000,15595.000
3329.139,15742.000,15718.000,15705.000
3340.829,15940.000,15885.000,15667.000
3352.502,15897.000,15932.000,15848.000
3364.158,16005.000,15983.000,15923.000
3375.796,16134.000,16089.000,16171.000
3387.415,16347.000,16275.000,16262.000
3399.018,16390.000,16269.000,16185.000
3410.604,16468.000,16367.000,16311.000
3422.171,16742.000,16562.000,16451.000
3433.722,16800.000,16694.000,16720.000
3445.255,16844.000,16771.000,16788.000
3456.771,17149.000,16716.000,16739.000
3468.269,17740.000,16708.000,16700.000
3479.751,17280.000,16660.000,16534.000
3491.215,18285.000,16727.000,16616.000
3502.662,17203.000,16856.000,16570.000
3514.091,16827.000,16887.000,16792.000
3525.505,17075.000,17046.000,16882.000
3536.900,17201.000,17148.000,16848.000
3548.279,17127.000,17176.000,17145.000
3559.641,17466.000,17353.000,17260.000
3570.985,17602.000,17449.000,17302.000
3582.313,17559.000,17371.000,17474.000
3590.799,17820.000,17739.000,17540.000

File: 2025_08_22_AbNTS_MA10_S21_10GPa_Glass_50X_532nm_74mW_Andor750_600gv_0wn_3accum_10s_UnPol_Pos1.csv
-1133.215,673.000,686.000,679.000
-1124.463,676.000,683.000,680.000
-1115.718,684.000,681.000,690.000
-1106.982,689.000,687.000,685.000
-1098.253,700.000,694.000,679.000
-1089.531,693.000,692.000,686.000
-1080.819,691.000,697.000,700.000
-1072.111,693.000,700.000,694.000
-1063.415,700.000,706.000,702.000
-1054.723,715.000,709.000,719.000
-1046.041,692.000,695.000,703.000
-1037.363,709.000,711.000,703.000
-1028.697,712.000,702.000,705.000
-1020.036,696.000,704.000,707.000
-1011.384,698.000,703.000,700.000
-1002.739,708.000,701.000,695.000
-994.101,696.000,695.000,703.000
-985.470,690.000,693.000,703.000
-976.848,704.000,695.000,703.000
-968.234,696.000,700.000,692.000
-959.626,698.000,700.000,695.000
-951.025,702.000,698.000,698.000
-942.431,702.000,710.000,695.000
-933.847,698.000,705.000,692.000
-925.269,700.000,709.000,689.000
-916.699,699.000,697.000,711.000
-908.135,706.000,692.000,701.000
-899.581,707.000,706.000,697.000
-891.034,700.000,710.000,707.000
-882.494,700.000,706.000,706.000
-873.961,703.000,698.000,707.000
-865.434,700.000,709.000,698.000
-856.915,707.000,711.000,700.000
-848.405,705.000,714.000,707.000
-839.902,703.000,707.000,709.000
-831.406,707.000,711.000,694.000
-822.917,705.000,708.000,711.000
-814.435,709.000,714.000,704.000
-805.962,725.000,723.000,710.000
-797.494,722.000,723.000,721.000
-789.036,737.000,728.000,726.000
-780.582,731.000,725.000,735.000
-772.137,729.000,755.000,731.000
-763.699,733.000,740.000,729.000
-755.270,732.000,737.000,746.000
-746.844,741.000,735.000,734.000
-738.430,736.000,741.000,728.000
-730.021,752.000,740.000,747.000
-721.621,746.000,737.000,741.000
-713.225,746.000,738.000,743.000
-704.839,751.000,747.000,738.000
-696.459,743.000,752.000,736.000
-688.087,753.000,748.000,748.000
-679.720,759.000,753.000,759.000
-671.364,763.000,767.000,768.000
-663.011,774.000,764.000,763.000
-654.669,766.000,777.000,788.000
-646.331,799.000,779.000,788.000
-638.002,792.000,783.000,798.000
-629.679,810.000,794.000,813.000
-621.365,823.000,823.000,813.000
-613.055,827.000,834.000,853.000
-604.756,858.000,841.000,877.000
-596.460,890.000,861.000,878.000
-588.175,905.000,909.000,901.000
-579.893,924.000,918.000,922.000
-571.622,939.000,925.000,942.000
-563.355,953.000,941.000,964.000
-555.098,949.000,967.000,955.000
-546.845,982.000,972.000,978.000
-538.602,973.000,970.000,1010.000
-530.363,1019.000,1003.000,1027.000
-522.134,1074.000,1049.000,1047.000
-513.909,1083.000,1083.000,1072.000
-505.693,1155.000,1153.000,1151.000
-497.483,1182.000,1209.000,1191.000
-489.281,1217.000,1220.000,1232.000
-481.084,1292.000,1269.000,1288.000
-472.897,1285.000,1330.000,1301.000
-464.714,1311.000,1333.000,1309.000
-456.541,1292.000,1291.000,1316.000
-448.372,1354.000,1308.000,1330.000
-440.212,1337.000,1351.000,1331.000
-432.057,1332.000,1339.000,1372.000
-423.911,1323.000,1350.000,1313.000
-415.770,1362.000,1364.000,1349.000
-407.638,1367.000,1355.000,1343.000
-399.510,1358.000,1354.000,1355.000
-391.392,1377.000,1379.000,1392.000
-383.278,1391.000,1382.000,1378.000
-375.173,1423.000,1373.000,1359.000
-367.073,1370.000,1344.000,1379.000
-358.982,1408.000,1401.000,1425.000
-350.896,1401.000,1447.000,1440.000
-342.819,1446.000,1427.000,1391.000
-334.746,1402.000,1415.000,1463.000
-326.683,1457.000,1453.000,1459.000
-318.623,1474.000,1440.000,1439.000
-310.573,1472.000,1470.000,1444.000
-302.528,1517.000,1511.000,1480.000
-294.492,1554.000,1551.000,1516.000
-286.459,1532.000,1504.000,1523.000
-278.436,1557.000,1550.000,1560.000
-270.417,1654.000,1568.000,1560.000
-262.408,1649.000,1591.000,1618.000
-254.403,1595.000,1628.000,1657.000
-246.406,1689.000,1698.000,1685.000
-238.416,1744.000,1693.000,1718.000
-230.433,1771.000,1736.000,1746.000
-222.454,1856.000,1805.000,1847.000
-214.485,1896.000,1924.000,1910.000
-206.520,1951.000,1994.000,1941.000
-198.564,2001.000,1967.000,2002.000
-190.613,2083.000,2154.000,2175.000
-182.670,2223.000,2167.000,2150.000
-174.732,2331.000,2267.000,2298.000
-166.803,2516.000,2484.000,2478.000
-158.877,2571.000,2530.000,2555.000
-150.961,2634.000,2600.000,2552.000
-143.049,2737.000,2725.000,2754.000
-135.147,2983.000,2989.000,2929.000
-127.248,3007.000,3003.000,2935.000
-119.359,3074.000,3107.000,3082.000
-111.473,3335.000,3282.000,3280.000
-103.596,3412.000,3442.000,3390.000
-95.724,3607.000,3587.000,3587.000
-87.860,3998.000,4065.000,3989.000
-80.001,4029.000,4100.000,4026.000
-72.151,4031.000,4057.000,4013.000
-64.305,4132.000,4203.000,4163.000
-56.468,4589.000,4569.000,4580.000
-48.634,4410.000,4370.000,4413.000
-40.810,4478.000,4448.000,4453.000
-32.990,4545.000,4455.000,4515.000
-25.179,4263.000,4240.000,4250.000
-17.372,3894.000,3843.000,3852.000
-9.573,3720.000,3713.000,3691.000
-1.779,5154.000,5089.000,5187.000
6.007,43620.000,44599.000,45115.000
13.788,8041.000,8139.000,7919.000
21.560,17286.000,16961.000,16837.000
29.328,4118.000,4104.000,4087.000
37.088,4076.000,4067.000,4036.000
44.844,4476.000,4390.000,4418.000
52.590,4894.000,4905.000,4939.000
60.333,5403.000,5337.000,5335.000
68.068,5355.000,5395.000,5417.000
75.798,5383.000,5336.000,5397.000
83.518,5802.000,5801.000,5831.000
91.235,5393.000,5369.000,5397.000
98.944,5293.000,5388.000,5310.000
106.649,5524.000,5537.000,5514.000
114.345,5595.000,5627.000,5564.000
122.037,5119.000,5096.000,5142.000
129.720,4959.000,5041.000,5007.000
137.399,4900.000,4949.000,4824.000
145.069,4636.000,4702.000,4714.000
152.736,4684.000,4704.000,4729.000
160.394,4645.000,4596.000,4651.000
168.049,4514.000,4528.000,4506.000
175.694,4340.000,4331.000,4323.000
183.335,4460.000,4428.000,4464.000
190.968,4312.000,4375.000,4327.000
198.597,4184.000,4220.000,4170.000
206.218,4095.000,4063.000,4065.000
213.834,3896.000,3930.000,3891.000
221.441,3807.000,3829.000,3801.000
229.046,3887.000,3889.000,3861.000
236.640,3771.000,3763.000,3762.000
244.232,3691.000,3676.000,3640.000
251.815,3646.000,3668.000,3662.000
259.395,3554.000,3566.000,3483.000
266.965,3466.000,3600.000,3591.000
274.531,3510.000,3552.000,3550.000
282.090,3548.000,3541.000,3596.000
289.644,3541.000,3505.000,3542.000
297.190,3597.000,3563.000,3593.000
304.733,3476.000,3602.000,3572.000
312.266,3543.000,3573.000,3496.000
319.796,3637.000,3597.000,3608.000
327.318,3624.000,3617.000,3634.000
334.834,3540.000,3584.000,3632.000
342.344,3756.000,3635.000,3643.000
349.850,3741.000,3754.000,3787.000
357.346,3796.000,3764.000,3794.000
364.839,3867.000,3760.000,3881.000
372.324,3802.000,3853.000,3806.000
379.805,3888.000,3849.000,3894.000
387.277,3941.000,3952.000,3945.000
394.746,3953.000,3982.000,3955.000
402.207,4087.000,4034.000,4039.000
409.664,4112.000,4072.000,4079.000
417.112,4104.000,4116.000,4112.000
424.555,4268.000,4271.000,4191.000
431.994,4247.000,4311.000,4283.000
439.425,4388.000,4309.000,4295.000
446.850,4471.000,4490.000,4436.000
454.268,4500.000,4548.000,4573.000
461.683,4573.000,4578.000,4570.000
469.092,4816.000,4694.000,4707.000
476.492,4781.000,4780.000,4822.000
483.886,4850.000,4806.000,4812.000
491.277,4897.000,4907.000,4900.000
498.661,5025.000,4926.000,4930.000
506.038,4966.000,5034.000,5019.000
513.409,4979.000,4904.000,4858.000
520.775,4766.000,4737.000,4748.000
528.136,4572.000,4464.000,4531.000
535.489,4321.000,4231.000,4293.000
542.836,4009.000,4062.000,4011.000
550.180,3847.000,3909.000,3886.000
557.516,3720.000,3768.000,3747.000
564.846,3623.000,3597.000,3554.000
572.169,3515.000,3535.000,3495.000
579.488,3432.000,3461.000,3404.000
586.801,3380.000,3372.000,3401.000
594.108,3390.000,3345.000,3392.000
601.407,3395.000,3364.000,3380.000
608.704,3372.000,3360.000,3384.000
615.991,3240.000,3254.000,3236.000
623.276,3066.000,3005.000,3027.000
630.553,2858.000,2868.000,2863.000
637.825,2709.000,2706.000,2707.000
645.089,2589.000,2536.000,2566.000
652.350,2475.000,2463.000,2455.000
659.604,2381.000,2348.000,2345.000
666.853,2322.000,2250.000,2271.000
674.095,2206.000,2191.000,2204.000
681.333,2158.000,2091.000,2099.000
688.562,2162.000,2117.000,2129.000
695.789,2124.000,2050.000,2069.000
703.008,2083.000,2061.000,2004.000
710.223,2079.000,2053.000,2054.000
717.430,1988.000,1977.000,1973.000
724.633,1998.000,2015.000,2005.000
731.828,1973.000,1978.000,1982.000
739.020,1925.000,1945.000,1922.000
746.204,1957.000,1996.000,1995.000
753.385,1952.000,1926.000,1926.000
760.557,1983.000,1976.000,1984.000
767.726,2017.000,2007.000,1957.000
774.888,1988.000,2017.000,2093.000
782.045,2077.000,2089.000,2096.000
789.195,2144.000,2111.000,2112.000
796.341,2145.000,2155.000,2085.000
803.479,2150.000,2143.000,2096.000
810.615,2089.000,2082.000,2098.000
817.743,2016.000,2071.000,2004.000
824.866,2003.000,2001.000,2012.000
831.981,1933.000,1902.000,1915.000
839.094,1852.000,1850.000,1860.000
846.199,1800.000,1773.000,1816.000
853.299,1737.000,1724.000,1758.000
860.394,1764.000,1781.000,1722.000
867.483,1731.000,1749.000,1732.000
874.565,1764.000,1735.000,1727.000
879.875,1777.000,1742.000,1745.000