Folder: Data/Raman/Silica (part 50)

File: 2025_08_22_Nat_SiO2_Glass_XRD_50X_532nm_6mW_Kymera328_300gv_3000wn_3accum_30s_UnPol_Pos6.csv
-1027.971,3600.000,3563.000,3522.000
-988.527,3648.000,3608.000,3550.000
-949.242,3699.000,3652.000,3613.000
-910.112,3794.000,3737.000,3660.000
-871.134,3827.000,3779.000,3753.000
-832.312,3954.000,3861.000,3798.000
-793.643,4039.000,3959.000,3920.000
-755.126,4183.000,4064.000,4049.000
-716.759,4299.000,4197.000,4139.000
-678.542,4463.000,4373.000,4286.000
-640.479,4724.000,4535.000,4464.000
-602.559,4984.000,4809.000,4718.000
-564.789,5328.000,5125.000,5011.000
-527.164,5638.000,5401.000,5319.000
-489.688,6065.000,5784.000,5679.000
-452.355,6527.000,6244.000,6129.000
-415.165,7065.000,6654.000,6593.000
-378.122,7524.000,7111.000,7009.000
-341.221,7933.000,7574.000,7402.000
-304.460,8388.000,7924.000,7756.000
-267.840,8918.000,8479.000,8254.000
-231.358,9467.000,8927.000,8739.000
-195.022,10155.000,9674.000,9436.000
-158.818,11103.000,10496.000,10323.000
-122.755,12418.000,11717.000,11575.000
-86.827,14152.000,13408.000,13071.000
-51.039,17191.000,16408.000,16039.000
-15.382,21274.000,20487.000,20025.000
20.139,65535.000,65535.000,65535.000
55.524,29936.000,29119.000,29054.000
90.779,20930.000,19838.000,19640.000
125.899,20216.000,19162.000,18811.000
160.890,19634.000,18595.000,18163.000
195.746,19087.000,17957.000,17375.000
230.476,19246.000,18026.000,17467.000
265.077,19832.000,18480.000,17991.000
299.547,20622.000,19301.000,18755.000
333.888,21621.000,20140.000,19778.000
368.102,22683.000,21129.000,20423.000
402.192,23491.000,22009.000,21499.000
436.157,24394.000,22518.000,22105.000
469.991,24797.000,23006.000,22498.000
503.705,24388.000,22542.000,22157.000
537.295,23344.000,21689.000,20989.000
570.762,22353.000,20619.000,19865.000
604.103,22535.000,20459.000,19978.000
637.326,22264.000,20147.000,19538.000
670.426,21026.000,18979.000,18257.000
703.408,20375.000,17947.000,17279.000
736.267,19769.000,17552.000,16975.000
769.008,19695.000,17485.000,16777.000
801.632,20248.000,17933.000,17170.000
834.134,20396.000,18220.000,17375.000
866.524,19768.000,17568.000,16739.000
898.796,19728.000,17196.000,16555.000
930.951,20048.000,17431.000,16695.000
962.991,20972.000,18382.000,17472.000
994.915,21834.000,19334.000,18442.000
1026.727,23097.000,20249.000,19471.000
1058.424,24670.000,21714.000,20660.000
1090.008,26199.000,23208.000,22272.000
1121.480,26827.000,23676.000,22930.000
1152.842,26105.000,22879.000,22035.000
1184.092,24485.000,21352.000,20458.000
1215.230,23318.000,20340.000,19440.000
1246.260,22920.000,19802.000,18824.000
1277.179,22782.000,19468.000,18548.000
1307.992,22615.000,19526.000,18481.000
1338.694,22919.000,19479.000,18551.000
1369.289,23248.000,19985.000,18734.000
1399.779,23458.000,20144.000,19066.000
1430.161,23924.000,20387.000,19157.000
1460.436,24365.000,20750.000,19608.000
1490.606,25135.000,21166.000,20238.000
1520.672,25511.000,21725.000,20670.000
1550.635,25904.000,22077.000,20662.000
1580.490,26169.000,22259.000,20927.000
1610.246,26335.000,22295.000,21095.000
1639.897,26463.000,22441.000,21121.000
1669.446,26209.000,22496.000,21156.000
1698.894,26810.000,22607.000,21013.000
1728.242,26580.000,22527.000,21173.000
1757.489,26719.000,22539.000,21258.000
1786.634,26985.000,22719.000,21340.000
1815.682,27033.000,23037.000,21508.000
1844.629,27776.000,23247.000,21971.000
1873.479,28183.000,23574.000,22173.000
1902.231,28544.000,24009.000,22634.000
1930.883,28876.000,24398.000,22924.000
1959.441,29091.000,24669.000,23165.000
1987.901,29282.000,24813.000,23194.000
2016.264,29557.000,24930.000,23418.000
2044.532,29795.000,25132.000,23479.000
2072.707,30249.000,25597.000,23877.000
2100.785,30286.000,25916.000,24106.000
2128.769,30827.000,26075.000,24452.000
2156.662,31106.000,26167.000,24536.000
2184.459,31446.000,26686.000,24933.000
2212.165,31552.000,26924.000,25206.000
2239.776,32317.000,27242.000,25721.000
2267.299,32732.000,27650.000,26153.000
2294.729,33130.000,28073.000,26650.000
2322.066,33921.000,28765.000,27142.000
2349.315,34751.000,29601.000,27780.000
2376.473,35568.000,30259.000,28589.000
2403.543,36570.000,31040.000,29507.000
2430.521,36931.000,31745.000,29703.000
2457.413,37498.000,32378.000,30300.000
2484.215,37751.000,32471.000,30308.000
2510.932,38137.000,32779.000,30760.000
2537.559,38659.000,33090.000,31389.000
2564.099,38870.000,33683.000,31601.000
2590.555,39221.000,33986.000,31951.000
2616.923,39754.000,34092.000,32235.000
2643.205,40200.000,34598.000,32821.000
2669.403,40472.000,35072.000,33321.000
2695.516,40793.000,35314.000,33514.000
2721.544,41244.000,35769.000,34059.000
2747.486,41657.000,36074.000,34055.000
2773.348,41872.000,36468.000,34636.000
2799.124,42885.000,37303.000,35278.000
2824.821,43618.000,38187.000,36042.000
2850.431,44385.000,38962.000,36726.000
2875.962,45581.000,39996.000,37860.000
2901.412,47062.000,41005.000,38941.000
2926.776,47480.000,41961.000,40022.000
2952.064,48442.000,42962.000,40915.000
2977.269,48927.000,43636.000,41492.000
3002.396,49619.000,43926.000,41908.000
3027.442,50397.000,44618.000,42468.000
3052.408,51076.000,45275.000,43228.000
3077.298,51758.000,46176.000,44114.000
3102.106,52793.000,47278.000,45143.000
3126.837,53304.000,48030.000,45615.000
3151.492,54417.000,48779.000,46759.000
3176.067,54910.000,49902.000,47354.000
3200.565,55990.000,50426.000,48252.000
3224.987,56847.000,51350.000,49181.000
3249.334,58038.000,52428.000,50484.000
3273.603,59297.000,53737.000,51636.000
3297.798,60171.000,54668.000,52370.000
3321.915,61192.000,56078.000,53468.000
3345.960,61997.000,56663.000,54594.000
3369.930,62939.000,57092.000,55533.000
3393.825,63988.000,58326.000,56269.000
3417.645,64672.000,58994.000,57046.000
3441.392,65268.000,59880.000,58081.000
3465.068,65535.000,60300.000,58457.000
3488.670,65535.000,61097.000,58974.000
3512.197,65535.000,62013.000,60254.000
3535.655,65535.000,63162.000,61408.000
3559.039,65535.000,64592.000,62612.000
3582.352,65535.000,65535.000,63757.000
3605.593,65535.000,65535.000,65216.000
3628.765,65535.000,65535.000,65535.000
3651.866,65535.000,65535.000,65535.000
3674.895,65535.000,65535.000,65535.000
3697.857,65535.000,65535.000,65535.000
3720.747,65535.000,65535.000,65535.000
3743.569,65535.000,65535.000,65535.000
3766.319,65535.000,65535.000,65535.000
3789.004,65535.000,65535.000,65535.000
3811.621,65535.000,65535.000,65535.000
3834.167,65535.000,65535.000,65535.000
3856.647,65535.000,65535.000,65535.000
3879.058,65535.000,65535.000,65535.000
3901.404,65535.000,65535.000,65535.000
3923.684,65535.000,65535.000,65535.000
3945.893,65535.000,65535.000,65535.000
3968.038,65535.000,65535.000,65535.000
3990.118,65535.000,65535.000,65535.000
4012.134,65535.000,65535.000,65535.000
4034.080,65535.000,65535.000,65535.000
4055.964,65535.000,65535.000,65535.000
4077.783,65535.000,65535.000,65535.000
4099.536,65535.000,65535.000,65535.000
4121.226,65535.000,65535.000,65535.000
4142.852,65535.000,65535.000,65535.000
4164.415,65535.000,65535.000,65535.000
4185.913,65535.000,65535.000,65535.000
4207.349,65535.000,65535.000,65535.000
4228.723,65535.000,65535.000,65535.000
4250.033,65535.000,65535.000,65535.000
4271.280,65535.000,65535.000,65535.000
4292.468,65535.000,65535.000,65535.000
4313.592,65535.000,65535.000,65535.000
4334.655,65535.000,65535.000,65535.000
4355.657,65535.000,65535.000,65535.000
4376.597,65535.000,65535.000,65535.000
4397.479,65535.000,65535.000,65535.000
4418.300,65535.000,65535.000,65535.000
4439.058,65535.000,65535.000,65535.000
4459.759,65535.000,65535.000,65535.000
4480.399,65535.000,65535.000,65535.000
4500.980,65535.000,65535.000,65535.000
4521.502,65535.000,65535.000,65535.000
4541.965,65535.000,65535.000,65535.000
4562.370,65535.000,65535.000,65535.000
4582.715,65535.000,65535.000,65535.000
4603.004,65535.000,65535.000,65535.000
4623.234,65535.000,65535.000,65535.000
4643.407,65535.000,65535.000,65535.000
4663.522,65535.000,65535.000,65535.000
4683.581,65535.000,65535.000,65535.000
4703.582,65535.000,65535.000,65535.000
4723.528,65535.000,65535.000,65535.000
4743.415,65535.000,65535.000,65535.000
4763.248,65535.000,65535.000,65535.000
4783.024,65535.000,65535.000,65535.000
4802.746,65535.000,65535.000,65535.000
4822.410,65535.000,65535.000,65535.000
4842.021,65535.000,65535.000,65535.000
4861.577,65535.000,65535.000,65535.000
4881.077,65535.000,65535.000,65535.000
4900.523,65535.000,65535.000,65535.000
4919.915,65535.000,65535.000,65535.000
4939.251,65535.000,65535.000,65535.000
4958.537,65535.000,65535.000,65535.000
4977.766,65535.000,65535.000,65535.000
4996.943,65535.000,65535.000,65535.000
5016.067,65535.000,65535.000,65535.000
5035.138,65535.000,65535.000,65535.000
5054.156,65535.000,65535.000,65535.000
5073.122,65535.000,65535.000,65535.000
5092.035,65535.000,65535.000,65535.000
5110.895,65535.000,65535.000,65153.000
5129.704,65535.000,65404.000,64529.000
5148.464,65535.000,64866.000,63878.000
5167.170,65535.000,63548.000,62546.000
5185.825,64760.000,62744.000,61915.000
5204.428,63231.000,61132.000,60502.000
5222.982,62302.000,60456.000,59344.000
5241.485,61341.000,59947.000,59106.000
5259.937,61126.000,59040.000,58356.000
5278.340,60870.000,58918.000,58112.000
5296.692,60546.000,58541.000,57590.000
5314.995,60297.000,58258.000,57582.000
5333.247,59988.000,57719.000,57216.000
5351.451,59477.000,57440.000,56697.000
5369.606,58461.000,56739.000,55760.000
5387.711,57301.000,55398.000,54804.000
5405.768,56489.000,54565.000,53686.000
5423.777,55227.000,53657.000,53030.000
5441.736,54402.000,53055.000,52210.000
5459.648,53887.000,52240.000,51672.000
5477.510,52836.000,51376.000,50566.000
5495.328,52213.000,50612.000,50029.000
5513.095,51353.000,49585.000,49107.000
5530.816,50725.000,48955.000,48241.000
5548.489,49900.000,48530.000,47688.000
5566.116,49497.000,48049.000,47360.000
5583.697,49150.000,47408.000,46992.000
5601.228,48382.000,47156.000,46424.000
5618.716,47462.000,46119.000,45722.000
5636.157,46956.000,45562.000,44996.000
5653.551,46050.000,44561.000,44168.000
5666.567,45481.000,44249.000,43524.000

File: 2025_08_22_Nat_SiO2_Glass_XRD_50X_532nm_6mW_Kymera328_600gv_2000wn_3accum_30s_UnPol_Pos2.csv
19.981,16840.000,16831.000,16749.000
37.206,11673.000,11634.000,11727.000
54.398,8128.000,8047.000,8025.000
71.561,7954.000,7997.000,7914.000
88.692,7806.000,7768.000,7857.000
105.792,7709.000,7622.000,7671.000
122.858,7549.000,7539.000,7415.000
139.896,7348.000,7285.000,7270.000
156.902,7104.000,7160.000,7143.000
173.875,7029.000,7098.000,7135.000
190.821,7092.000,7070.000,7122.000
207.733,7085.000,7166.000,7130.000
224.615,7278.000,7218.000,7220.000
241.467,7349.000,7424.000,7386.000
258.289,7535.000,7593.000,7572.000
275.081,7868.000,7877.000,7870.000
291.839,8078.000,8080.000,8130.000
308.570,8422.000,8416.000,8371.000
325.271,8619.000,8556.000,8602.000
341.938,8838.000,8851.000,8771.000
358.579,9103.000,9084.000,9063.000
375.189,9380.000,9365.000,9418.000
391.770,9639.000,9563.000,9732.000
408.318,9735.000,9783.000,9786.000
424.839,9855.000,9931.000,9807.000
441.330,9939.000,9957.000,9926.000
457.790,10088.000,9950.000,9892.000
474.222,9712.000,9727.000,9776.000
490.624,9414.000,9480.000,9515.000
506.995,9033.000,9108.000,9054.000
523.340,7806.000,7905.000,7850.000
539.654,6923.000,6936.000,7011.000
555.940,6602.000,6659.000,6614.000
572.195,6577.000,6495.000,6467.000
588.423,6416.000,6395.000,6392.000
604.621,6467.000,6463.000,6468.000
620.790,6448.000,6436.000,6309.000
636.931,6149.000,6086.000,6084.000
653.044,5921.000,5910.000,5923.000
669.128,5779.000,5752.000,5821.000
685.182,5750.000,5722.000,5731.000
701.210,5724.000,5682.000,5688.000
717.209,5651.000,5610.000,5627.000
733.177,5698.000,5606.000,5631.000
749.119,5739.000,5716.000,5651.000
765.033,5821.000,5847.000,5792.000
780.920,6075.000,5989.000,6045.000
796.776,6439.000,6262.000,6269.000
812.606,6425.000,6307.000,6326.000
828.410,6235.000,6312.000,6186.000
844.183,6060.000,6099.000,6120.000
859.930,5838.000,5823.000,5816.000
875.650,5696.000,5675.000,5637.000
891.339,5583.000,5595.000,5564.000
907.004,5591.000,5597.000,5640.000
922.642,5731.000,5631.000,5607.000
938.251,5763.000,5747.000,5617.000
953.832,5748.000,5806.000,5706.000
969.388,5860.000,5968.000,5861.000
984.916,5929.000,5915.000,5900.000
1000.416,6014.000,6011.000,6003.000
1015.891,6103.000,6123.000,6039.000
1031.338,6237.000,6251.000,6207.000
1046.757,6466.000,6376.000,6376.000
1062.151,6571.000,6667.000,6558.000
1077.519,6819.000,6697.000,6700.000
1092.859,6838.000,6837.000,6782.000
1108.171,6820.000,6798.000,6689.000
1123.459,6610.000,6561.000,6597.000
1138.721,6502.000,6491.000,6444.000
1153.954,6454.000,6390.000,6469.000
1169.162,6374.000,6381.000,6343.000
1184.345,6329.000,6330.000,6324.000
1199.501,6302.000,6217.000,6282.000
1214.629,6273.000,6262.000,6230.000
1229.734,6218.000,6199.000,6177.000
1244.812,6153.000,6126.000,6094.000
1259.864,6126.000,6096.000,6030.000
1274.889,6159.000,6099.000,6052.000
1289.891,6118.000,6051.000,6048.000
1304.866,6116.000,6082.000,6066.000
1319.814,6136.000,6094.000,6077.000
1334.738,6142.000,6093.000,6115.000
1349.637,6157.000,6120.000,6166.000
1364.509,6180.000,6164.000,6132.000
1379.357,6241.000,6213.000,6234.000
1394.180,6363.000,6275.000,6258.000
1408.978,6379.000,6395.000,6338.000
1423.747,6400.000,6291.000,6253.000
1438.495,6398.000,6401.000,6352.000
1453.218,6448.000,6404.000,6426.000
1467.913,6526.000,6555.000,6536.000
1482.586,6530.000,6573.000,6502.000
1497.233,6635.000,6610.000,6528.000
1511.854,6708.000,6681.000,6663.000
1526.452,6702.000,6683.000,6645.000
1541.026,6747.000,6701.000,6713.000
1555.575,6793.000,6754.000,6743.000
1570.098,6836.000,6723.000,6785.000
1584.598,6934.000,6882.000,6787.000
1599.073,6804.000,6818.000,6843.000
1613.523,6884.000,6853.000,6823.000
1627.950,6947.000,6892.000,6821.000
1642.353,6924.000,6939.000,6926.000
1656.729,6884.000,6942.000,6882.000
1671.084,6930.000,6938.000,6831.000
1685.415,6973.000,6885.000,6941.000
1699.721,6888.000,6927.000,6900.000
1714.002,7025.000,6992.000,6925.000
1728.262,7032.000,6990.000,6903.000
1742.497,7001.000,7001.000,6915.000
1756.707,7038.000,7048.000,6949.000
1770.894,7017.000,7044.000,6936.000
1785.059,7110.000,7011.000,6914.000
1799.198,7121.000,7097.000,7006.000
1813.314,7090.000,7153.000,7020.000
1827.408,7187.000,7095.000,7128.000
1841.478,7203.000,7189.000,7097.000
1855.524,7236.000,7218.000,7159.000
1869.547,7310.000,7303.000,7214.000
1883.547,7406.000,7310.000,7199.000
1897.525,7504.000,7388.000,7334.000
1911.477,7471.000,7331.000,7298.000
1925.409,7481.000,7371.000,7415.000
1939.317,7595.000,7504.000,7541.000
1953.201,7610.000,7512.000,7528.000
1967.063,7647.000,7567.000,7532.000
1980.903,7635.000,7599.000,7510.000
1994.718,7617.000,7576.000,7511.000
2008.513,7619.000,7684.000,7561.000
2022.284,7686.000,7582.000,7641.000
2036.031,7705.000,7776.000,7723.000
2049.758,7807.000,7755.000,7725.000
2063.462,7894.000,7768.000,7758.000
2077.145,7840.000,7806.000,7777.000
2090.802,7870.000,7816.000,7785.000
2104.439,7843.000,7881.000,7814.000
2118.054,7968.000,7893.000,7860.000
2131.644,7986.000,7955.000,7868.000
2145.215,8003.000,8057.000,7884.000
2158.763,7994.000,7995.000,7944.000
2172.290,8092.000,8051.000,7933.000
2185.793,8153.000,8083.000,8046.000
2199.275,8188.000,7983.000,8082.000
2212.736,8170.000,8147.000,8109.000
2226.174,8134.000,8159.000,8113.000
2239.591,8213.000,8196.000,8185.000
2252.985,8287.000,8259.000,8187.000
2266.359,8327.000,8231.000,8248.000
2279.710,8357.000,8235.000,8316.000
2293.040,8511.000,8308.000,8344.000
2306.349,8444.000,8370.000,8419.000
2319.635,8535.000,8500.000,8499.000
2332.901,8726.000,8601.000,8466.000
2346.147,8664.000,8641.000,8606.000
2359.370,8743.000,8669.000,8611.000
2372.571,8869.000,8741.000,8720.000
2385.751,8859.000,8831.000,8711.000
2398.912,8916.000,8931.000,8761.000
2412.048,8947.000,8951.000,8927.000
2425.167,9085.000,9036.000,8892.000
2438.264,9001.000,9089.000,8919.000
2451.339,9096.000,9130.000,8912.000
2464.393,9187.000,9068.000,9035.000
2477.427,9150.000,9131.000,8970.000
2490.440,9269.000,9210.000,9168.000
2503.432,9294.000,9302.000,9212.000
2516.404,9300.000,9346.000,9282.000
2529.355,9463.000,9326.000,9346.000
2542.284,9575.000,9423.000,9347.000
2555.195,9481.000,9439.000,9395.000
2568.084,9529.000,9522.000,9420.000
2580.952,9692.000,9509.000,9439.000
2593.800,9642.000,9573.000,9497.000
2606.629,9729.000,9630.000,9574.000
2619.437,9702.000,9673.000,9594.000
2632.224,9790.000,9686.000,9609.000
2644.992,9763.000,9784.000,9729.000
2657.739,9961.000,9792.000,9702.000
2670.466,9918.000,9925.000,9822.000
2683.172,9985.000,9984.000,9901.000
2695.861,10039.000,10068.000,9889.000
2708.528,10107.000,9876.000,9911.000
2721.174,10058.000,10063.000,9999.000
2733.801,10250.000,10079.000,10012.000
2746.409,10171.000,10118.000,10077.000
2758.996,10251.000,10222.000,10103.000
2771.564,10363.000,10251.000,10184.000
2784.114,10375.000,10348.000,10264.000
2796.642,10441.000,10414.000,10244.000
2809.150,10481.000,10424.000,10479.000
2821.640,10639.000,10520.000,10532.000
2834.111,10705.000,10575.000,10562.000
2846.560,10816.000,10838.000,10713.000
2858.992,10863.000,10920.000,10823.000
2871.404,10956.000,10948.000,10922.000
2883.797,11118.000,11079.000,10917.000
2896.169,11286.000,11170.000,11044.000
2908.523,11331.000,11407.000,11293.000
2920.859,11457.000,11274.000,11286.000
2933.173,11511.000,11525.000,11324.000
2945.470,11703.000,11668.000,11637.000
2957.748,11766.000,11731.000,11682.000
2970.006,11750.000,11762.000,11726.000
2982.246,12037.000,11885.000,11947.000
2994.467,12071.000,11953.000,11892.000
3006.667,12198.000,12057.000,12008.000
3018.851,12003.000,12105.000,12024.000
3031.016,12262.000,12261.000,12072.000
3043.161,12311.000,12182.000,12276.000
3055.287,12284.000,12468.000,12253.000
3067.395,12455.000,12451.000,12380.000
3079.485,12650.000,12542.000,12381.000
3091.555,12649.000,12560.000,12547.000
3103.608,12834.000,12748.000,12636.000
3115.643,12734.000,12852.000,12723.000
3127.658,12937.000,12857.000,12847.000
3139.654,13092.000,12964.000,12864.000
3151.634,13260.000,13015.000,13008.000
3163.594,13302.000,13126.000,13131.000
3175.535,13228.000,13141.000,13204.000
3187.459,13384.000,13311.000,13326.000
3199.365,13631.000,13479.000,13400.000
3211.253,13760.000,13609.000,13551.000
3223.122,13763.000,13736.000,13780.000
3234.974,13894.000,13834.000,13779.000
3246.808,14055.000,13978.000,13912.000
3258.622,14144.000,14188.000,14182.000
3270.419,14292.000,14296.000,14171.000
3282.199,14458.000,14383.000,14310.000
3293.962,14464.000,14346.000,14240.000
3305.705,14632.000,14545.000,14484.000
3317.431,14859.000,14713.000,14640.000
3329.139,14758.000,14874.000,14749.000
3340.829,14935.000,14937.000,14740.000
3352.502,14992.000,15000.000,14840.000
3364.158,15218.000,15005.000,15039.000
3375.796,15275.000,15305.000,15288.000
3387.415,15528.000,15420.000,15378.000
3399.018,15456.000,15579.000,15504.000
3410.604,15570.000,15424.000,15508.000
3422.171,15758.000,15614.000,15614.000
3433.722,15696.000,15767.000,15619.000
3445.255,15840.000,15804.000,15650.000
3456.771,15799.000,15863.000,15739.000
3468.269,15998.000,15837.000,15876.000
3479.751,16161.000,16052.000,15955.000
3491.215,16116.000,16040.000,15974.000
3502.662,16288.000,16222.000,16123.000
3514.091,16291.000,16433.000,16191.000
3525.505,16575.000,16373.000,16434.000
3536.900,16704.000,16604.000,16531.000
3548.279,16887.000,16846.000,16744.000
3559.641,16928.000,16863.000,16872.000
3570.985,17121.000,17038.000,17038.000
3582.313,17301.000,17200.000,17018.000
3590.799,17332.000,17249.000,17406.000