Folder: Data/Raman/Silica (part 119)

File: 2025_09_12_12pct_Hydrated_SiO2_Glass_on_DAC_Culet_50X_532nm_74mW_Andor750_600gv_1030wn_6accum_30s_DePol_Loc4.csv
23.130,3556.000,3592.000,3595.000,3580.000,3543.000,3654.000
34.751,3267.000,3192.000,3224.000,3210.000,3173.000,3182.000
46.355,3281.000,3321.000,3233.000,3209.000,3321.000,3319.000
57.946,3179.000,3213.000,3152.000,3131.000,3136.000,3114.000
69.523,3083.000,3033.000,2977.000,2984.000,3001.000,3021.000
81.084,2760.000,2759.000,2741.000,2792.000,2752.000,2767.000
92.632,2598.000,2598.000,2646.000,2615.000,2599.000,2568.000
104.167,2415.000,2411.000,2407.000,2405.000,2387.000,2423.000
115.685,2346.000,2338.000,2384.000,2366.000,2324.000,2371.000
127.190,2193.000,2163.000,2185.000,2151.000,2132.000,2171.000
138.683,2049.000,1981.000,2023.000,1973.000,2003.000,2016.000
150.158,1923.000,1894.000,1864.000,1876.000,1850.000,1854.000
161.621,1789.000,1837.000,1839.000,1809.000,1811.000,1800.000
173.071,1722.000,1698.000,1764.000,1715.000,1697.000,1729.000
184.504,1669.000,1692.000,1657.000,1635.000,1649.000,1668.000
195.925,1629.000,1599.000,1604.000,1597.000,1586.000,1563.000
207.333,1574.000,1522.000,1579.000,1559.000,1571.000,1571.000
218.724,1489.000,1516.000,1509.000,1515.000,1516.000,1507.000
230.104,1495.000,1496.000,1491.000,1503.000,1508.000,1494.000
241.469,1459.000,1475.000,1443.000,1442.000,1456.000,1434.000
252.819,1440.000,1445.000,1440.000,1432.000,1432.000,1434.000
264.156,1394.000,1435.000,1409.000,1411.000,1380.000,1375.000
275.480,1389.000,1400.000,1380.000,1391.000,1381.000,1393.000
286.790,1386.000,1408.000,1392.000,1376.000,1390.000,1384.000
298.084,1389.000,1387.000,1374.000,1382.000,1386.000,1347.000
309.367,1346.000,1372.000,1347.000,1350.000,1349.000,1343.000
320.635,1365.000,1375.000,1347.000,1407.000,1338.000,1349.000
331.888,1307.000,1327.000,1336.000,1320.000,1340.000,1338.000
343.130,1389.000,1368.000,1345.000,1356.000,1336.000,1341.000
354.357,1332.000,1351.000,1388.000,1358.000,1344.000,1317.000
365.569,1350.000,1382.000,1356.000,1347.000,1326.000,1339.000
376.770,1367.000,1369.000,1352.000,1349.000,1330.000,1333.000
387.956,1364.000,1383.000,1365.000,1328.000,1348.000,1335.000
399.127,1363.000,1371.000,1359.000,1355.000,1313.000,1341.000
410.287,1368.000,1352.000,1334.000,1338.000,1359.000,1344.000
421.432,1369.000,1393.000,1363.000,1368.000,1343.000,1353.000
432.563,1397.000,1395.000,1378.000,1332.000,1369.000,1367.000
443.683,1377.000,1387.000,1383.000,1384.000,1396.000,1368.000
454.788,1380.000,1372.000,1406.000,1376.000,1410.000,1374.000
465.879,1427.000,1409.000,1379.000,1403.000,1398.000,1400.000
476.957,1392.000,1403.000,1393.000,1407.000,1401.000,1355.000
488.022,1371.000,1354.000,1373.000,1390.000,1338.000,1340.000
499.072,1230.000,1271.000,1271.000,1266.000,1264.000,1244.000
510.111,1156.000,1154.000,1146.000,1133.000,1109.000,1124.000
521.136,1062.000,1089.000,1078.000,1085.000,1070.000,1047.000
532.147,1025.000,1018.000,1018.000,1038.000,1007.000,1009.000
543.145,1015.000,1021.000,1017.000,993.000,979.000,989.000
554.131,980.000,989.000,987.000,990.000,967.000,986.000
565.100,979.000,983.000,963.000,956.000,945.000,929.000
576.060,952.000,974.000,966.000,934.000,966.000,940.000
587.006,947.000,941.000,953.000,953.000,934.000,936.000
597.937,950.000,926.000,924.000,940.000,931.000,913.000
608.856,930.000,927.000,931.000,955.000,923.000,916.000
619.763,915.000,928.000,945.000,927.000,915.000,934.000
630.655,934.000,934.000,922.000,929.000,890.000,900.000
641.535,921.000,918.000,905.000,920.000,885.000,902.000
652.403,914.000,927.000,905.000,923.000,908.000,897.000
663.256,919.000,926.000,909.000,924.000,907.000,899.000
674.097,937.000,910.000,902.000,906.000,893.000,877.000
684.926,925.000,934.000,929.000,895.000,897.000,1083.000
695.739,929.000,932.000,918.000,910.000,905.000,1392.000
706.542,936.000,928.000,938.000,924.000,915.000,909.000
717.332,933.000,921.000,920.000,933.000,916.000,892.000
728.106,934.000,922.000,909.000,906.000,915.000,916.000
738.871,938.000,928.000,919.000,942.000,930.000,933.000
749.622,937.000,940.000,950.000,942.000,907.000,916.000
760.360,990.000,958.000,946.000,946.000,945.000,936.000
771.085,1019.000,1032.000,1007.000,1018.000,1005.000,987.000
781.797,1102.000,1090.000,1099.000,1120.000,1087.000,1096.000
792.498,1129.000,1121.000,1093.000,1091.000,1102.000,1114.000
803.184,1126.000,1117.000,1086.000,1106.000,1094.000,1091.000
813.859,1050.000,1076.000,1065.000,1056.000,1049.000,1043.000
824.520,1031.000,1029.000,1021.000,1037.000,1054.000,1029.000
835.169,1020.000,1004.000,986.000,986.000,1000.000,973.000
845.806,956.000,980.000,957.000,936.000,932.000,926.000
856.430,943.000,923.000,906.000,934.000,908.000,903.000
867.040,930.000,940.000,936.000,917.000,935.000,895.000
877.640,924.000,925.000,922.000,913.000,916.000,903.000
888.226,957.000,954.000,927.000,923.000,922.000,900.000
898.798,916.000,933.000,927.000,916.000,935.000,910.000
909.360,958.000,965.000,944.000,956.000,932.000,920.000
919.909,957.000,962.000,922.000,949.000,959.000,920.000
930.444,965.000,955.000,965.000,966.000,945.000,953.000
940.968,984.000,1005.000,987.000,978.000,990.000,982.000
951.481,988.000,1035.000,1031.000,993.000,995.000,993.000
961.979,1042.000,1033.000,1035.000,1048.000,1051.000,1028.000
972.466,1047.000,1054.000,1059.000,1024.000,1021.000,1014.000
982.941,1010.000,1032.000,1005.000,990.000,1013.000,981.000
993.402,1008.000,997.000,1003.000,991.000,967.000,964.000
1003.852,980.000,970.000,960.000,943.000,957.000,925.000
1014.290,973.000,969.000,947.000,954.000,928.000,920.000
1024.714,979.000,950.000,978.000,964.000,960.000,938.000
1035.128,990.000,970.000,963.000,978.000,968.000,946.000
1045.530,1014.000,1012.000,989.000,993.000,1009.000,977.000
1055.917,1014.000,1001.000,1023.000,1003.000,1003.000,985.000
1066.294,969.000,978.000,1002.000,1002.000,1014.000,975.000
1076.660,1018.000,977.000,1018.000,983.000,984.000,977.000
1087.011,981.000,984.000,988.000,973.000,965.000,944.000
1097.351,940.000,925.000,943.000,920.000,919.000,901.000
1107.681,923.000,928.000,925.000,902.000,903.000,914.000
1117.995,933.000,931.000,930.000,921.000,877.000,917.000
1128.300,930.000,918.000,928.000,925.000,935.000,894.000
1138.593,974.000,943.000,935.000,918.000,920.000,923.000
1148.872,966.000,957.000,960.000,935.000,955.000,934.000
1159.141,958.000,951.000,947.000,948.000,937.000,921.000
1169.397,949.000,963.000,995.000,936.000,946.000,928.000
1179.641,954.000,968.000,948.000,935.000,960.000,947.000
1189.874,978.000,957.000,974.000,966.000,937.000,939.000
1200.095,955.000,955.000,962.000,953.000,935.000,933.000
1210.302,944.000,950.000,938.000,955.000,927.000,934.000
1220.499,965.000,932.000,937.000,950.000,914.000,914.000
1230.685,931.000,947.000,938.000,927.000,910.000,899.000
1240.858,931.000,944.000,935.000,915.000,906.000,904.000
1251.020,920.000,938.000,901.000,919.000,914.000,890.000
1261.170,901.000,915.000,916.000,909.000,886.000,875.000
1271.308,909.000,895.000,910.000,895.000,905.000,910.000
1281.433,923.000,903.000,916.000,910.000,896.000,891.000
1291.548,922.000,912.000,897.000,910.000,895.000,879.000
1301.652,909.000,912.000,900.000,900.000,880.000,886.000
1311.742,921.000,906.000,916.000,883.000,897.000,891.000
1321.822,1004.000,970.000,966.000,969.000,962.000,951.000
1331.891,1167.000,1147.000,1127.000,1144.000,1147.000,1138.000
1341.946,937.000,929.000,942.000,908.000,915.000,889.000
1351.991,914.000,919.000,914.000,908.000,909.000,906.000
1362.025,952.000,908.000,909.000,913.000,904.000,918.000
1372.045,936.000,956.000,937.000,939.000,950.000,926.000
1382.057,962.000,962.000,942.000,951.000,938.000,905.000
1392.056,912.000,917.000,917.000,908.000,884.000,889.000
1402.042,920.000,935.000,915.000,916.000,889.000,891.000
1412.017,937.000,914.000,914.000,907.000,898.000,893.000
1421.982,925.000,906.000,915.000,891.000,899.000,891.000
1431.935,927.000,915.000,909.000,927.000,904.000,901.000
1441.877,922.000,898.000,924.000,917.000,911.000,874.000
1451.807,914.000,917.000,925.000,919.000,901.000,885.000
1461.725,929.000,915.000,910.000,906.000,924.000,891.000
1471.632,928.000,909.000,911.000,904.000,904.000,873.000
1481.530,909.000,929.000,904.000,901.000,886.000,890.000
1491.414,922.000,915.000,905.000,906.000,895.000,895.000
1501.287,934.000,906.000,927.000,899.000,901.000,886.000
1511.151,902.000,919.000,913.000,915.000,900.000,894.000
1521.001,923.000,919.000,922.000,911.000,904.000,892.000
1530.840,923.000,926.000,928.000,905.000,909.000,889.000
1540.670,929.000,920.000,923.000,914.000,912.000,911.000
1550.486,933.000,928.000,931.000,926.000,908.000,902.000
1560.293,924.000,917.000,938.000,915.000,920.000,910.000
1570.088,954.000,915.000,932.000,927.000,897.000,910.000
1579.872,938.000,941.000,930.000,938.000,908.000,907.000
1589.645,966.000,939.000,941.000,926.000,927.000,924.000
1599.408,997.000,980.000,948.000,959.000,953.000,936.000
1609.158,982.000,954.000,947.000,958.000,941.000,947.000
1618.898,969.000,960.000,954.000,935.000,927.000,920.000
1628.627,950.000,943.000,937.000,942.000,931.000,929.000
1638.345,952.000,946.000,910.000,921.000,922.000,915.000
1648.050,928.000,931.000,919.000,927.000,910.000,891.000
1657.747,948.000,929.000,913.000,910.000,913.000,891.000
1667.431,940.000,924.000,908.000,923.000,906.000,892.000
1677.104,921.000,919.000,916.000,912.000,886.000,902.000
1686.768,934.000,907.000,921.000,903.000,889.000,887.000
1696.420,918.000,911.000,918.000,900.000,907.000,870.000
1706.060,904.000,949.000,914.000,909.000,877.000,886.000
1715.691,923.000,913.000,909.000,900.000,883.000,881.000
1725.311,915.000,928.000,895.000,905.000,904.000,881.000
1734.918,932.000,936.000,910.000,900.000,888.000,878.000
1744.517,924.000,911.000,911.000,910.000,909.000,891.000
1754.104,927.000,915.000,899.000,909.000,904.000,896.000
1763.679,924.000,921.000,923.000,887.000,888.000,873.000
1773.245,915.000,909.000,899.000,915.000,898.000,886.000
1782.800,907.000,926.000,912.000,914.000,908.000,900.000
1792.343,906.000,911.000,920.000,905.000,899.000,898.000
1801.877,925.000,923.000,936.000,925.000,903.000,892.000
1811.400,947.000,917.000,915.000,917.000,912.000,895.000
1816.157,924.000,930.000,938.000,929.000,915.000,914.000

File: 2025_09_12_12pct_Hydrated_SiO2_Glass_on_DAC_Culet_50X_532nm_74mW_Andor750_600gv_1030wn_6accum_30s_DePol_Loc5_DAC2.csv
23.130,2801.000,2751.000,2720.000,2742.000,2704.000,2717.000
34.751,2464.000,2428.000,2485.000,2483.000,2435.000,2456.000
46.355,2590.000,2643.000,2596.000,2594.000,2563.000,2555.000
57.946,2532.000,2507.000,2514.000,2508.000,2553.000,2516.000
69.523,2492.000,2501.000,2495.000,2469.000,2472.000,2435.000
81.084,2264.000,2256.000,2277.000,2263.000,2289.000,2283.000
92.632,2163.000,2177.000,2177.000,2131.000,2136.000,2147.000
104.167,1971.000,1935.000,2007.000,1993.000,1983.000,2017.000
115.685,1966.000,1936.000,1944.000,1930.000,1933.000,1968.000
127.190,1778.000,1766.000,1756.000,1748.000,1727.000,1744.000
138.683,1692.000,1687.000,1747.000,1687.000,1650.000,1683.000
150.158,1591.000,1597.000,1616.000,1590.000,1609.000,1599.000
161.621,1547.000,1542.000,1555.000,1522.000,1547.000,1536.000
173.071,1499.000,1483.000,1460.000,1435.000,1495.000,1461.000
184.504,1430.000,1424.000,1430.000,1432.000,1405.000,1443.000
195.925,1409.000,1413.000,1381.000,1385.000,1421.000,1359.000
207.333,1340.000,1356.000,1375.000,1353.000,1382.000,1347.000
218.724,1331.000,1315.000,1327.000,1324.000,1334.000,1310.000
230.104,1328.000,1342.000,1321.000,1336.000,1266.000,1308.000
241.469,1283.000,1288.000,1304.000,1289.000,1304.000,1303.000
252.819,1299.000,1273.000,1290.000,1289.000,1274.000,1272.000
264.156,1255.000,1274.000,1292.000,1287.000,1261.000,1256.000
275.480,1269.000,1282.000,1266.000,1284.000,1279.000,1258.000
286.790,1249.000,1273.000,1276.000,1298.000,1271.000,1254.000
298.084,1267.000,1288.000,1279.000,1240.000,1253.000,1251.000
309.367,1277.000,1265.000,1259.000,1260.000,1285.000,1261.000
320.635,1272.000,1244.000,1282.000,1259.000,1282.000,1256.000
331.888,1291.000,1293.000,1268.000,1243.000,1278.000,1243.000
343.130,1326.000,1295.000,1280.000,1279.000,1264.000,1260.000
354.357,1327.000,1291.000,1306.000,1256.000,1271.000,1276.000
365.569,1319.000,1291.000,1289.000,1292.000,1286.000,1268.000
376.770,1343.000,1302.000,1302.000,1281.000,1279.000,1292.000
387.956,1321.000,1305.000,1316.000,1310.000,1286.000,1305.000
399.127,1329.000,1323.000,1319.000,1312.000,1319.000,1326.000
410.287,1315.000,1334.000,1328.000,1334.000,1296.000,1318.000
421.432,1315.000,1335.000,1363.000,1318.000,1330.000,1295.000
432.563,1336.000,1364.000,1369.000,1328.000,1336.000,1332.000
443.683,1386.000,1351.000,1358.000,1359.000,1323.000,1334.000
454.788,1396.000,1384.000,1374.000,1386.000,1377.000,1340.000
465.879,1415.000,1394.000,1390.000,1398.000,1386.000,1362.000
476.957,1399.000,1386.000,1415.000,1384.000,1371.000,1357.000
488.022,1366.000,1367.000,1371.000,1383.000,1363.000,1337.000
499.072,1258.000,1260.000,1256.000,1259.000,1251.000,1236.000
510.111,1135.000,1119.000,1105.000,1098.000,1105.000,1098.000
521.136,1041.000,1021.000,1012.000,1019.000,1057.000,1032.000
532.147,1009.000,992.000,986.000,1002.000,985.000,1011.000
543.145,966.000,975.000,957.000,963.000,955.000,950.000
554.131,949.000,952.000,949.000,957.000,924.000,948.000
565.100,932.000,943.000,918.000,917.000,924.000,906.000
576.060,911.000,914.000,901.000,898.000,906.000,908.000
587.006,916.000,909.000,884.000,904.000,904.000,910.000
597.937,889.000,897.000,896.000,902.000,864.000,886.000
608.856,906.000,886.000,904.000,878.000,902.000,885.000
619.763,872.000,889.000,897.000,869.000,887.000,869.000
630.655,884.000,867.000,875.000,865.000,864.000,856.000
641.535,869.000,880.000,858.000,863.000,856.000,868.000
652.403,879.000,878.000,867.000,861.000,863.000,855.000
663.256,881.000,875.000,862.000,844.000,850.000,861.000
674.097,877.000,874.000,862.000,842.000,848.000,855.000
684.926,875.000,866.000,870.000,863.000,869.000,870.000
695.739,875.000,874.000,860.000,875.000,873.000,845.000
706.542,894.000,860.000,872.000,881.000,880.000,857.000
717.332,878.000,882.000,866.000,874.000,860.000,871.000
728.106,889.000,878.000,880.000,877.000,885.000,868.000
738.871,888.000,886.000,873.000,871.000,862.000,877.000
749.622,893.000,873.000,877.000,883.000,893.000,868.000
760.360,898.000,885.000,917.000,893.000,894.000,907.000
771.085,969.000,961.000,929.000,947.000,955.000,939.000
781.797,1042.000,1017.000,1022.000,1032.000,1016.000,1006.000
792.498,1025.000,1051.000,1021.000,1024.000,1015.000,998.000
803.184,1005.000,1012.000,1027.000,1022.000,1009.000,1031.000
813.859,1015.000,1002.000,983.000,1006.000,981.000,994.000
824.520,959.000,971.000,958.000,972.000,966.000,945.000
835.169,938.000,947.000,931.000,920.000,918.000,915.000
845.806,938.000,895.000,892.000,885.000,891.000,873.000
856.430,879.000,895.000,860.000,868.000,885.000,850.000
867.040,887.000,892.000,874.000,867.000,880.000,842.000
877.640,897.000,868.000,866.000,891.000,875.000,842.000
888.226,890.000,864.000,870.000,883.000,867.000,874.000
898.798,894.000,882.000,895.000,885.000,857.000,863.000
909.360,897.000,885.000,888.000,890.000,882.000,884.000
919.909,921.000,906.000,910.000,895.000,914.000,886.000
930.444,936.000,915.000,920.000,929.000,911.000,902.000
940.968,936.000,962.000,926.000,941.000,919.000,951.000
951.481,976.000,951.000,947.000,969.000,961.000,957.000
961.979,1003.000,967.000,979.000,960.000,1002.000,959.000
972.466,977.000,976.000,973.000,969.000,981.000,988.000
982.941,977.000,966.000,959.000,962.000,955.000,955.000
993.402,955.000,934.000,926.000,912.000,937.000,908.000
1003.852,921.000,907.000,929.000,903.000,910.000,883.000
1014.290,905.000,898.000,904.000,896.000,897.000,889.000
1024.714,889.000,919.000,898.000,896.000,893.000,895.000
1035.128,943.000,935.000,908.000,917.000,893.000,912.000
1045.530,938.000,940.000,925.000,933.000,910.000,937.000
1055.917,951.000,931.000,920.000,915.000,927.000,930.000
1066.294,930.000,919.000,910.000,936.000,915.000,918.000
1076.660,925.000,940.000,929.000,903.000,914.000,910.000
1087.011,905.000,893.000,895.000,894.000,892.000,887.000
1097.351,884.000,878.000,860.000,861.000,848.000,853.000
1107.681,866.000,856.000,863.000,869.000,859.000,865.000
1117.995,865.000,861.000,859.000,869.000,861.000,847.000
1128.300,872.000,859.000,854.000,866.000,869.000,863.000
1138.593,906.000,888.000,872.000,859.000,869.000,855.000
1148.872,910.000,895.000,886.000,900.000,874.000,862.000
1159.141,909.000,891.000,890.000,902.000,895.000,893.000
1169.397,914.000,913.000,903.000,895.000,906.000,888.000
1179.641,889.000,891.000,915.000,896.000,894.000,882.000
1189.874,906.000,890.000,904.000,915.000,921.000,881.000
1200.095,897.000,884.000,886.000,905.000,892.000,876.000
1210.302,905.000,890.000,901.000,881.000,870.000,866.000
1220.499,876.000,897.000,891.000,897.000,884.000,862.000
1230.685,880.000,883.000,886.000,876.000,867.000,872.000
1240.858,860.000,867.000,879.000,851.000,863.000,854.000
1251.020,864.000,866.000,865.000,851.000,845.000,839.000
1261.170,859.000,868.000,866.000,855.000,852.000,848.000
1271.308,859.000,873.000,862.000,836.000,839.000,835.000
1281.433,874.000,850.000,847.000,860.000,835.000,842.000
1291.548,872.000,847.000,838.000,857.000,861.000,820.000
1301.652,873.000,869.000,840.000,861.000,835.000,846.000
1311.742,864.000,849.000,857.000,857.000,851.000,856.000
1321.822,977.000,976.000,946.000,974.000,966.000,963.000
1331.891,1311.000,1322.000,1334.000,1265.000,1298.000,1301.000
1341.946,878.000,871.000,860.000,862.000,864.000,848.000
1351.991,855.000,855.000,858.000,854.000,848.000,826.000
1362.025,862.000,859.000,848.000,853.000,852.000,855.000
1372.045,863.000,858.000,842.000,846.000,819.000,832.000
1382.057,865.000,838.000,826.000,843.000,843.000,820.000
1392.056,868.000,854.000,834.000,838.000,835.000,808.000
1402.042,855.000,853.000,844.000,847.000,844.000,825.000
1412.017,854.000,855.000,843.000,855.000,842.000,831.000
1421.982,868.000,838.000,835.000,844.000,836.000,833.000
1431.935,878.000,831.000,850.000,843.000,834.000,852.000
1441.877,863.000,863.000,857.000,871.000,845.000,845.000
1451.807,862.000,840.000,846.000,845.000,847.000,849.000
1461.725,857.000,842.000,834.000,846.000,841.000,833.000
1471.632,864.000,845.000,823.000,859.000,842.000,828.000
1481.530,867.000,847.000,859.000,847.000,836.000,838.000
1491.414,854.000,854.000,857.000,851.000,851.000,841.000
1501.287,859.000,850.000,839.000,839.000,850.000,828.000
1511.151,870.000,835.000,860.000,841.000,847.000,844.000
1521.001,861.000,845.000,854.000,861.000,847.000,836.000
1530.840,856.000,872.000,857.000,867.000,848.000,831.000
1540.670,872.000,877.000,852.000,855.000,835.000,823.000
1550.486,876.000,859.000,858.000,872.000,865.000,834.000
1560.293,871.000,856.000,857.000,861.000,856.000,834.000
1570.088,881.000,853.000,853.000,857.000,856.000,853.000
1579.872,888.000,863.000,849.000,852.000,841.000,827.000
1589.645,867.000,877.000,860.000,863.000,878.000,843.000
1599.408,871.000,875.000,871.000,862.000,867.000,841.000
1609.158,898.000,874.000,866.000,861.000,873.000,839.000
1618.898,875.000,878.000,886.000,881.000,866.000,867.000
1628.627,875.000,869.000,861.000,881.000,854.000,848.000
1638.345,889.000,865.000,868.000,875.000,866.000,887.000
1648.050,872.000,867.000,851.000,857.000,866.000,855.000
1657.747,882.000,872.000,869.000,850.000,858.000,852.000
1667.431,866.000,860.000,849.000,866.000,854.000,826.000
1677.104,857.000,840.000,865.000,853.000,854.000,839.000
1686.768,870.000,888.000,858.000,862.000,856.000,843.000
1696.420,871.000,874.000,851.000,848.000,847.000,839.000
1706.060,865.000,864.000,844.000,844.000,840.000,851.000
1715.691,883.000,856.000,832.000,836.000,830.000,842.000
1725.311,860.000,849.000,838.000,866.000,839.000,846.000
1734.918,850.000,846.000,854.000,842.000,835.000,831.000
1744.517,854.000,840.000,843.000,851.000,847.000,830.000
1754.104,862.000,865.000,855.000,859.000,861.000,858.000
1763.679,871.000,867.000,863.000,841.000,855.000,837.000
1773.245,863.000,851.000,868.000,858.000,863.000,823.000
1782.800,870.000,853.000,862.000,857.000,848.000,828.000
1792.343,879.000,851.000,856.000,839.000,855.000,837.000
1801.877,873.000,860.000,869.000,836.000,870.000,855.000
1811.400,878.000,880.000,845.000,871.000,881.000,853.000
1816.157,886.000,887.000,863.000,887.000,869.000,857.000