Folder: Data/Raman/Silica (part 15)

File: 2022_12_08_SiO2_Glass_MQ_2000C_532nm_Pol_50mW_750mm_600gv_3000wn_iDus_10s_3accum.csv
2268.047,656.000,660.000,655.000
2274.019,649.000,666.000,665.000
2279.988,663.000,668.000,671.000
2285.950,663.000,650.000,661.000
2291.910,663.000,663.000,662.000
2297.865,662.000,661.000,667.000
2303.816,661.000,661.000,673.000
2309.763,658.000,663.000,671.000
2315.703,660.000,665.000,655.000
2321.642,660.000,665.000,672.000
2327.575,665.000,659.000,674.000
2333.505,665.000,666.000,660.000
2339.430,669.000,667.000,668.000
2345.350,667.000,678.000,669.000
2351.267,670.000,667.000,667.000
2357.179,668.000,666.000,663.000
2363.088,663.000,667.000,661.000
2368.992,660.000,653.000,656.000
2374.890,665.000,657.000,658.000
2380.786,666.000,665.000,656.000
2386.677,674.000,660.000,665.000
2392.564,660.000,667.000,662.000
2398.447,667.000,652.000,662.000
2404.324,666.000,668.000,667.000
2410.199,663.000,669.000,666.000
2416.069,659.000,668.000,671.000
2421.935,667.000,665.000,671.000
2427.795,672.000,663.000,670.000
2433.653,664.000,670.000,671.000
2439.506,659.000,670.000,659.000
2445.356,657.000,670.000,658.000
2451.201,673.000,666.000,669.000
2457.040,661.000,664.000,666.000
2462.877,672.000,665.000,658.000
2468.709,671.000,666.000,657.000
2474.538,660.000,663.000,672.000
2480.362,659.000,659.000,659.000
2486.181,671.000,661.000,657.000
2491.997,666.000,665.000,659.000
2497.809,666.000,663.000,664.000
2503.616,666.000,667.000,670.000
2509.420,668.000,667.000,664.000
2515.218,673.000,668.000,670.000
2521.013,669.000,667.000,670.000
2526.804,663.000,667.000,669.000
2532.591,666.000,662.000,662.000
2538.374,671.000,671.000,666.000
2544.151,670.000,668.000,658.000
2549.926,669.000,665.000,665.000
2555.697,675.000,662.000,662.000
2561.463,668.000,667.000,670.000
2567.226,668.000,664.000,672.000
2572.982,663.000,665.000,662.000
2578.737,670.000,663.000,672.000
2584.487,670.000,665.000,670.000
2590.233,665.000,671.000,672.000
2595.975,657.000,674.000,667.000
2601.711,664.000,664.000,671.000
2607.445,674.000,668.000,664.000
2613.175,664.000,658.000,666.000
2618.901,670.000,660.000,662.000
2624.622,675.000,671.000,676.000
2630.339,668.000,670.000,680.000
2636.052,676.000,673.000,673.000
2641.762,663.000,665.000,667.000
2647.467,664.000,672.000,666.000
2653.169,668.000,675.000,673.000
2658.865,669.000,667.000,665.000
2664.558,668.000,673.000,663.000
2670.248,668.000,671.000,672.000
2675.933,680.000,669.000,663.000
2681.613,677.000,674.000,663.000
2687.291,666.000,669.000,674.000
2692.964,668.000,672.000,667.000
2698.634,669.000,671.000,673.000
2704.299,675.000,681.000,678.000
2709.959,675.000,674.000,663.000
2715.617,670.000,671.000,674.000
2721.270,657.000,667.000,677.000
2726.920,670.000,658.000,663.000
2732.565,669.000,667.000,673.000
2738.205,673.000,673.000,671.000
2743.843,670.000,670.000,673.000
2749.477,663.000,669.000,659.000
2755.107,662.000,666.000,675.000
2760.732,664.000,672.000,670.000
2766.353,680.000,671.000,670.000
2771.971,677.000,678.000,665.000
2777.585,664.000,664.000,679.000
2783.195,675.000,681.000,674.000
2788.801,668.000,668.000,669.000
2794.401,667.000,672.000,678.000
2800.000,670.000,673.000,663.000
2805.594,664.000,674.000,663.000
2811.185,679.000,665.000,675.000
2816.771,673.000,665.000,671.000
2822.352,659.000,663.000,666.000
2827.931,672.000,671.000,675.000
2833.506,666.000,667.000,659.000
2839.077,668.000,668.000,670.000
2844.644,664.000,671.000,659.000
2850.206,668.000,678.000,675.000
2855.765,665.000,674.000,670.000
2861.320,674.000,672.000,665.000
2866.872,669.000,668.000,672.000
2872.420,669.000,667.000,672.000
2877.962,674.000,675.000,668.000
2883.502,675.000,664.000,660.000
2889.038,677.000,673.000,669.000
2894.570,671.000,671.000,682.000
2900.099,673.000,670.000,673.000
2905.622,665.000,673.000,675.000
2911.143,671.000,680.000,681.000
2916.659,668.000,672.000,668.000
2922.173,673.000,675.000,676.000
2927.682,666.000,673.000,670.000
2933.186,671.000,663.000,666.000
2938.687,670.000,672.000,675.000
2944.185,671.000,679.000,678.000
2949.679,671.000,672.000,676.000
2955.168,666.000,670.000,674.000
2960.654,662.000,674.000,669.000
2966.137,664.000,671.000,681.000
2971.616,682.000,681.000,675.000
2977.091,671.000,674.000,677.000
2982.560,673.000,676.000,671.000
2988.028,664.000,670.000,672.000
2993.491,669.000,676.000,673.000
2998.951,664.000,665.000,669.000
3004.407,677.000,678.000,672.000
3009.858,675.000,670.000,670.000
3015.307,680.000,672.000,671.000
3020.752,674.000,674.000,660.000
3026.193,679.000,680.000,666.000
3031.630,674.000,667.000,665.000
3037.062,666.000,672.000,662.000
3042.492,666.000,681.000,671.000
3047.918,671.000,672.000,672.000
3053.340,677.000,674.000,670.000
3058.759,677.000,669.000,676.000
3064.172,669.000,667.000,674.000
3069.583,676.000,668.000,672.000
3074.991,677.000,667.000,678.000
3080.395,670.000,675.000,675.000
3085.795,673.000,683.000,675.000
3091.189,685.000,665.000,669.000
3096.582,671.000,667.000,669.000
3101.971,668.000,675.000,678.000
3107.356,683.000,674.000,672.000
3112.738,675.000,677.000,679.000
3118.114,675.000,679.000,665.000
3123.488,672.000,674.000,674.000
3128.859,673.000,671.000,667.000
3134.225,671.000,679.000,666.000
3139.587,671.000,673.000,684.000
3144.946,681.000,665.000,686.000
3150.302,680.000,685.000,670.000
3155.654,663.000,674.000,677.000
3161.003,673.000,679.000,672.000
3166.346,668.000,673.000,679.000
3171.687,673.000,673.000,672.000
3177.024,668.000,687.000,670.000
3182.358,679.000,669.000,679.000
3187.688,675.000,668.000,672.000
3193.014,667.000,669.000,665.000
3198.336,671.000,683.000,685.000
3203.656,667.000,673.000,669.000
3208.971,673.000,684.000,684.000
3214.283,678.000,670.000,676.000
3219.590,678.000,664.000,683.000
3224.895,672.000,670.000,674.000
3230.196,684.000,657.000,668.000
3235.494,678.000,670.000,664.000
3240.788,681.000,677.000,672.000
3246.077,667.000,675.000,679.000
3251.364,688.000,675.000,677.000
3256.647,667.000,671.000,679.000
3261.926,676.000,671.000,680.000
3267.202,662.000,676.000,669.000
3272.473,668.000,668.000,670.000
3277.742,672.000,679.000,661.000
3283.007,673.000,680.000,675.000
3288.269,679.000,677.000,673.000
3293.527,670.000,679.000,682.000
3298.780,676.000,676.000,672.000
3304.031,677.000,674.000,670.000
3309.279,674.000,672.000,660.000
3314.523,674.000,672.000,672.000
3319.763,670.000,681.000,666.000
3324.998,675.000,681.000,671.000
3330.232,679.000,679.000,675.000
3335.461,678.000,668.000,674.000
3340.688,674.000,674.000,678.000
3345.910,671.000,676.000,672.000
3351.128,670.000,671.000,674.000
3356.344,679.000,678.000,677.000
3361.556,680.000,674.000,670.000
3366.764,678.000,675.000,677.000
3371.969,684.000,679.000,681.000
3377.169,682.000,666.000,675.000
3382.367,677.000,674.000,674.000
3387.562,682.000,679.000,682.000
3392.753,677.000,674.000,671.000
3397.940,682.000,676.000,668.000
3403.123,687.000,672.000,672.000
3408.304,677.000,674.000,680.000
3413.481,668.000,671.000,680.000
3418.654,676.000,671.000,675.000
3423.824,674.000,672.000,676.000
3428.990,678.000,675.000,671.000
3434.153,676.000,669.000,667.000
3439.312,679.000,673.000,673.000
3444.469,683.000,672.000,684.000
3449.621,678.000,673.000,679.000
3454.769,672.000,690.000,685.000
3459.915,666.000,677.000,674.000
3465.058,676.000,684.000,682.000
3470.197,673.000,673.000,672.000
3475.331,673.000,673.000,677.000
3480.463,681.000,670.000,678.000
3485.591,682.000,677.000,681.000
3490.717,682.000,661.000,684.000
3495.838,680.000,680.000,669.000
3500.955,683.000,678.000,674.000
3506.070,680.000,673.000,682.000
3511.182,671.000,685.000,678.000
3516.290,673.000,682.000,679.000
3521.394,674.000,680.000,684.000
3526.494,683.000,666.000,672.000
3531.592,683.000,682.000,684.000
3536.687,678.000,675.000,677.000
3541.778,686.000,686.000,677.000
3546.865,672.000,680.000,686.000
3551.948,675.000,688.000,682.000
3557.029,682.000,682.000,687.000
3562.107,694.000,685.000,674.000
3567.181,686.000,682.000,674.000
3572.251,678.000,681.000,690.000
3577.317,681.000,681.000,676.000
3582.381,677.000,680.000,688.000
3587.442,676.000,682.000,677.000
3592.499,674.000,680.000,675.000
3597.553,685.000,682.000,685.000
3602.602,684.000,681.000,679.000
3607.649,679.000,686.000,679.000
3612.693,684.000,680.000,690.000
3617.734,684.000,678.000,680.000
3622.770,681.000,678.000,681.000
3627.803,687.000,683.000,693.000
3632.834,684.000,684.000,689.000
3637.861,691.000,680.000,691.000
3642.885,702.000,681.000,702.000
3647.904,691.000,681.000,692.000
3652.921,697.000,694.000,694.000
3657.935,689.000,693.000,701.000
3662.945,701.000,705.000,701.000
3666.701,703.000,711.000,695.000

File: 2022_12_08_SiO2_Glass_MQ_2000C_532nm_UnPol_12mW_750mm_600gv_977wn_iDus_100s_3accum.csv
34.493,2490.000,2450.000,2454.000
42.233,3076.000,3051.000,3031.000
49.965,3233.000,3261.000,3188.000
57.693,3250.000,3248.000,3268.000
65.412,3415.000,3464.000,3389.000
73.127,3305.000,3319.000,3354.000
80.834,3276.000,3317.000,3301.000
88.536,3329.000,3286.000,3292.000
96.232,3290.000,3309.000,3338.000
103.919,3080.000,3135.000,3059.000
111.603,3174.000,3148.000,3087.000
119.278,3051.000,3031.000,3103.000
126.948,2953.000,3001.000,3007.000
134.613,2939.000,2921.000,2942.000
142.269,2874.000,2944.000,2936.000
149.920,2838.000,2844.000,2843.000
157.564,2762.000,2793.000,2714.000
165.203,2747.000,2810.000,2818.000
172.834,2779.000,2817.000,2815.000
180.461,2715.000,2784.000,2768.000
188.081,2852.000,2794.000,2790.000
195.693,2823.000,2810.000,2858.000
203.302,2959.000,2897.000,2871.000
210.901,2970.000,2907.000,2896.000
218.497,2995.000,2949.000,2991.000
226.084,2988.000,2997.000,2966.000
233.667,3152.000,3111.000,3119.000
241.244,3206.000,3208.000,3166.000
248.813,3206.000,3196.000,3247.000
256.378,3311.000,3381.000,3339.000
263.934,3455.000,3506.000,3476.000
271.487,3475.000,3501.000,3472.000
279.031,3707.000,3634.000,3666.000
286.571,3817.000,3807.000,3812.000
294.105,3862.000,3802.000,3848.000
301.630,4012.000,3947.000,4045.000
309.152,4095.000,4111.000,4130.000
316.666,4108.000,4218.000,4160.000
324.175,4238.000,4276.000,4285.000
331.678,4481.000,4521.000,4550.000
339.173,4547.000,4472.000,4570.000
346.665,4708.000,4679.000,4777.000
354.148,4877.000,4872.000,4939.000
361.627,5018.000,5011.000,5015.000
369.098,5176.000,5185.000,5093.000
376.564,5362.000,5275.000,5279.000
384.025,5283.000,5337.000,5350.000
391.478,5399.000,5451.000,5447.000
398.927,5569.000,5533.000,5617.000
406.367,5476.000,5629.000,5565.000
413.804,5819.000,5646.000,5775.000
421.233,5915.000,5865.000,5871.000
428.658,5834.000,5879.000,5845.000
436.076,5952.000,5973.000,5968.000
443.487,6024.000,6025.000,5992.000
450.894,5910.000,5873.000,5877.000
458.292,5783.000,5782.000,5858.000
465.687,5678.000,5714.000,5659.000
473.076,5407.000,5509.000,5500.000
480.457,5719.000,5683.000,5698.000
487.834,5910.000,5895.000,6006.000
495.203,5334.000,5421.000,5296.000
502.568,4420.000,4548.000,4487.000
509.925,3674.000,3623.000,3599.000
517.278,2989.000,2986.000,2963.000
524.626,2655.000,2629.000,2599.000
531.965,3190.000,2431.000,2353.000
539.300,2239.000,2203.000,2189.000
546.628,2111.000,2074.000,2034.000
553.952,1993.000,1976.000,1941.000
561.268,1875.000,1904.000,1867.000
568.580,1878.000,1875.000,1869.000
575.886,1825.000,1831.000,1793.000
583.184,1819.000,1805.000,1841.000
590.479,1958.000,1979.000,1954.000
597.765,2076.000,2053.000,2058.000
605.048,1981.000,2033.000,2007.000
612.323,1860.000,1824.000,1891.000
619.594,1672.000,1687.000,1665.000
626.859,1525.000,2470.000,1555.000
634.117,1458.000,1448.000,1453.000
641.371,1387.000,1382.000,1375.000
648.616,1343.000,1354.000,1338.000
655.859,1359.000,1314.000,1313.000
663.095,1279.000,1292.000,1273.000
670.324,1286.000,1302.000,1316.000
677.548,1282.000,1291.000,1329.000
684.765,1253.000,1293.000,1272.000
691.979,1274.000,1290.000,1274.000
699.184,1255.000,1251.000,1267.000
706.386,1285.000,1293.000,1272.000
713.582,1287.000,1291.000,1305.000
720.771,1306.000,1301.000,1327.000
727.955,1359.000,1340.000,1359.000
735.132,1387.000,1345.000,1363.000
742.306,1387.000,1383.000,1359.000
749.471,1371.000,1388.000,1402.000
756.633,1440.000,1424.000,1433.000
763.789,1542.000,1540.000,1552.000
770.938,1870.000,1864.000,1837.000
778.083,2065.000,2062.000,2058.000
785.220,2154.000,2168.000,2176.000
792.354,2169.000,2166.000,2213.000
799.479,2184.000,2164.000,2147.000
806.602,2109.000,2119.000,2097.000
813.718,2044.000,2028.000,2053.000
820.827,1940.000,1932.000,1937.000
827.933,1874.000,1870.000,1882.000
835.031,1760.000,1733.000,1791.000
842.125,1606.000,1567.000,1629.000
849.213,1425.000,1441.000,1435.000
856.294,1288.000,1296.000,1291.000
863.372,1194.000,1234.000,1212.000
870.441,1182.000,1169.000,1205.000
877.508,1162.000,1123.000,1157.000
884.566,1127.000,1124.000,1135.000
891.621,1152.000,1121.000,1134.000
898.671,1131.000,1139.000,1123.000
905.713,1111.000,1124.000,1124.000
912.751,1107.000,1112.000,1097.000
919.782,1106.000,1112.000,1094.000
926.810,1080.000,1088.000,1090.000
933.830,1072.000,1059.000,1070.000
940.846,1040.000,1058.000,1062.000
947.857,1067.000,1040.000,1077.000
954.860,1066.000,1072.000,1051.000
961.860,1145.000,1141.000,1140.000
968.853,1117.000,1101.000,1133.000
975.841,1090.000,1076.000,1085.000
982.825,1049.000,1056.000,1076.000
989.801,1106.000,1073.000,1068.000
996.773,1073.000,1088.000,1084.000
1003.738,1108.000,1117.000,1115.000
1010.700,1141.000,1132.000,1123.000
1017.654,1233.000,1192.000,1184.000
1024.605,1229.000,1258.000,1219.000
1031.550,1285.000,1260.000,1307.000
1038.488,1332.000,1317.000,1338.000
1045.422,1323.000,1361.000,1345.000
1052.349,1397.000,1366.000,1369.000
1059.273,1339.000,1326.000,1332.000
1066.189,1345.000,1336.000,1315.000
1073.102,1274.000,1300.000,1309.000
1080.009,1236.000,1240.000,1222.000
1086.909,1156.000,1151.000,1212.000
1093.806,1126.000,1116.000,1117.000
1100.695,1107.000,1067.000,1076.000
1107.581,1041.000,1054.000,1059.000
1114.462,1041.000,1041.000,1005.000
1121.335,1027.000,1080.000,1043.000
1128.205,1055.000,1070.000,1066.000
1135.067,1068.000,1082.000,1118.000
1141.927,1102.000,1086.000,1113.000
1148.779,1120.000,1115.000,1097.000
1155.627,1150.000,1100.000,1161.000
1162.470,1130.000,1146.000,1156.000
1169.306,1148.000,1118.000,1145.000
1176.139,1129.000,1166.000,1155.000
1182.964,1139.000,1157.000,1160.000
1189.786,1155.000,1163.000,1170.000
1196.601,1154.000,1155.000,1107.000
1203.413,1143.000,1132.000,1124.000
1210.219,1109.000,1100.000,1110.000
1217.018,1115.000,1088.000,1088.000
1223.814,1095.000,1121.000,1082.000
1230.602,1091.000,1075.000,1085.000
1237.387,1049.000,1055.000,1053.000
1244.166,1035.000,1018.000,1020.000
1250.940,1037.000,991.000,1005.000
1257.710,969.000,993.000,974.000
1264.472,955.000,951.000,944.000
1271.231,935.000,946.000,939.000
1277.983,954.000,926.000,923.000
1284.732,929.000,941.000,940.000
1291.473,923.000,922.000,935.000
1298.212,926.000,914.000,920.000
1304.945,937.000,931.000,926.000
1311.671,909.000,924.000,921.000
1318.393,938.000,922.000,904.000
1325.109,933.000,903.000,913.000
1331.822,933.000,910.000,918.000
1338.529,900.000,903.000,927.000
1345.229,929.000,925.000,917.000
1351.926,912.000,922.000,925.000
1358.616,923.000,918.000,903.000
1365.303,893.000,921.000,895.000
1371.982,908.000,907.000,913.000
1378.659,936.000,912.000,895.000
1385.330,912.000,919.000,906.000
1391.994,897.000,925.000,909.000
1398.656,927.000,918.000,919.000
1405.310,917.000,913.000,928.000
1411.961,927.000,918.000,924.000
1418.605,902.000,903.000,932.000
1425.245,940.000,922.000,917.000
1431.881,919.000,918.000,912.000
1438.510,923.000,947.000,923.000
1445.135,899.000,934.000,909.000
1451.754,935.000,927.000,939.000
1458.370,925.000,927.000,942.000
1464.980,919.000,959.000,944.000
1471.583,943.000,941.000,923.000
1478.184,938.000,930.000,936.000
1484.777,936.000,932.000,934.000
1491.368,938.000,933.000,924.000
1497.951,948.000,946.000,923.000
1504.531,915.000,935.000,926.000
1511.107,937.000,932.000,927.000
1517.675,964.000,955.000,946.000
1524.240,931.000,952.000,951.000
1530.799,939.000,970.000,955.000
1537.354,957.000,958.000,960.000
1543.903,946.000,989.000,957.000
1550.448,960.000,988.000,981.000
1556.988,964.000,972.000,969.000
1563.522,959.000,957.000,976.000
1570.052,966.000,969.000,962.000
1576.576,974.000,960.000,966.000
1583.097,968.000,971.000,981.000
1589.612,953.000,992.000,975.000
1596.121,990.000,963.000,972.000
1602.627,969.000,962.000,985.000
1609.126,988.000,960.000,958.000
1615.622,968.000,967.000,968.000
1622.112,999.000,983.000,975.000
1628.598,958.000,955.000,956.000
1635.079,972.000,977.000,974.000
1641.554,970.000,960.000,965.000
1648.025,969.000,965.000,979.000
1654.490,953.000,953.000,968.000
1660.952,963.000,932.000,949.000
1667.407,945.000,986.000,963.000
1673.859,949.000,969.000,957.000
1680.306,937.000,952.000,955.000
1686.746,937.000,939.000,934.000
1693.184,957.000,929.000,967.000
1699.615,942.000,943.000,926.000
1706.042,941.000,919.000,929.000
1712.465,937.000,922.000,946.000
1718.882,941.000,967.000,929.000
1725.295,934.000,934.000,936.000
1731.702,927.000,949.000,925.000
1738.105,934.000,935.000,946.000
1744.502,942.000,926.000,944.000
1750.897,935.000,961.000,933.000
1757.284,960.000,952.000,960.000
1763.669,950.000,938.000,937.000
1770.048,947.000,956.000,956.000
1776.421,954.000,946.000,959.000
1782.792,964.000,967.000,968.000
1789.155,975.000,976.000,975.000
1795.516,981.000,967.000,952.000
1801.872,969.000,960.000,954.000
1808.221,982.000,996.000,993.000
1814.567,1002.000,1002.000,996.000
1820.907,1006.000,1000.000,1025.000
1825.661,1021.000,1024.000,1036.000

File: 2022_12_08_SiO2_Glass_MQ_2000C_532nm_UnPol_12mW_750mm_600gv_977wn_iDus_100s_3accum_sum.csv
34.493,7374.000
42.233,9142.000
49.965,9762.000
57.693,9732.000
65.412,10450.000
73.127,9938.000
80.834,9860.000
88.536,9945.000
96.232,9952.000
103.919,9396.000
111.603,9382.000
119.278,9184.000
126.948,8968.000
134.613,8783.000
142.269,8887.000
149.920,8472.000
157.564,8333.000
165.203,8434.000
172.834,8417.000
180.461,8243.000
188.081,8552.000
195.693,8554.000
203.302,8714.000
210.901,8814.000
218.497,8998.000
226.084,8948.000
233.667,9398.000
241.244,9575.000
248.813,9724.000
256.378,10062.000
263.934,10379.000
271.487,10543.000
279.031,10991.000
286.571,11450.000
294.105,11511.000
301.630,12030.000
309.152,12465.000
316.666,12608.000
324.175,12886.000
331.678,13470.000
339.173,13714.000
346.665,14196.000
354.148,14805.000
361.627,15141.000
369.098,15440.000
376.564,16049.000
384.025,15997.000
391.478,16266.000
398.927,16961.000
406.367,16788.000
413.804,17252.000
421.233,17604.000
428.658,17742.000
436.076,17957.000
443.487,18138.000
450.894,17616.000
458.292,17589.000
465.687,17085.000
473.076,16541.000
480.457,17134.000
487.834,17937.000
495.203,16114.000
502.568,13545.000
509.925,11101.000
517.278,9009.000
524.626,8935.000
531.965,7714.000
539.300,6628.000
546.628,6249.000
553.952,6008.000
561.268,5743.000
568.580,5573.000
575.886,5469.000
583.184,5564.000
590.479,5910.000
597.765,6183.000
605.048,6081.000
612.323,5609.000
619.594,4985.000
626.859,4663.000
634.117,4383.000
641.371,4216.000
648.616,4160.000
655.859,4027.000
663.095,3931.000
670.324,3872.000
677.548,3875.000
684.765,3833.000
691.979,3860.000
699.184,3846.000
706.386,3842.000
713.582,3930.000
720.771,3924.000
727.955,4074.000
735.132,4136.000
742.306,4120.000
749.471,4184.000
756.633,4219.000
763.789,4673.000
770.938,5588.000
778.083,6231.000
785.220,6632.000
792.354,6550.000
799.479,6442.000
806.602,6355.000
813.718,6277.000
820.827,5899.000
827.933,5675.000
835.031,5317.000
842.125,4829.000
849.213,4294.000
856.294,3934.000
863.372,3676.000
870.441,3588.000
877.508,3497.000
884.566,3476.000
891.621,3438.000
898.671,3361.000
905.713,3419.000
912.751,3350.000
919.782,3341.000
926.810,3257.000
933.830,3218.000
940.846,3220.000
947.857,3217.000
954.860,3319.000
961.860,3448.000
968.853,3368.000
975.841,3251.000
982.825,3216.000
989.801,3181.000
996.773,3286.000
1003.738,3343.000
1010.700,3439.000
1017.654,3567.000
1024.605,3694.000
1031.550,3809.000
1038.488,3942.000
1045.422,4043.000
1052.349,4147.000
1059.273,4062.000
1066.189,3994.000
1073.102,3889.000
1080.009,3705.000
1086.909,3580.000
1093.806,3371.000
1100.695,3255.000
1107.581,3135.000
1114.462,3123.000
1121.335,3120.000
1128.205,3172.000
1135.067,3270.000
1141.927,3309.000
1148.779,3316.000
1155.627,3437.000
1162.470,3414.000
1169.306,3465.000
1176.139,3468.000
1182.964,3485.000
1189.786,3522.000
1196.601,3504.000
1203.413,3450.000
1210.219,3410.000
1217.018,3321.000
1223.814,3347.000
1230.602,3230.000
1237.387,3143.000
1244.166,3064.000
1250.940,2973.000
1257.710,2914.000
1264.472,2891.000
1271.231,2847.000
1277.983,2841.000
1284.732,2827.000
1291.473,2820.000
1298.212,2803.000
1304.945,2796.000
1311.671,2782.000
1318.393,2794.000
1325.109,2768.000
1331.822,2764.000
1338.529,2767.000
1345.229,2749.000
1351.926,2780.000
1358.616,2794.000
1365.303,2774.000
1371.982,2734.000
1378.659,2782.000
1385.330,2755.000
1391.994,2805.000
1398.656,2740.000
1405.310,2770.000
1411.961,2813.000
1418.605,2777.000
1425.245,2785.000
1431.881,2816.000
1438.510,2812.000
1445.135,2818.000
1451.754,2807.000
1458.370,2830.000
1464.980,2811.000
1471.583,2812.000
1478.184,2816.000
1484.777,2780.000
1491.368,2843.000
1497.951,2808.000
1504.531,2846.000
1511.107,2819.000
1517.675,2879.000
1524.240,2825.000
1530.799,2834.000
1537.354,2865.000
1543.903,2934.000
1550.448,2948.000
1556.988,2924.000
1563.522,2941.000
1570.052,2911.000
1576.576,2941.000
1583.097,2929.000
1589.612,2979.000
1596.121,2911.000
1602.627,2943.000
1609.126,2945.000
1615.622,2913.000
1622.112,2910.000
1628.598,2928.000
1635.079,2906.000
1641.554,2923.000
1648.025,2872.000
1654.490,2891.000
1660.952,2902.000
1667.407,2887.000
1673.859,2875.000
1680.306,2856.000
1686.746,2869.000
1693.184,2863.000
1699.615,2868.000
1706.042,2817.000
1712.465,2846.000
1718.882,2800.000
1725.295,2830.000
1731.702,2847.000
1738.105,2833.000
1744.502,2828.000
1750.897,2826.000
1757.284,2854.000
1763.669,2865.000
1770.048,2863.000
1776.421,2932.000
1782.792,2897.000
1789.155,2912.000
1795.516,2936.000
1801.872,2951.000
1808.221,2963.000
1814.567,3019.000
1820.907,3033.000
1825.661,3092.000