Folder: Data/Raman/Silica (part 93)

File: 2025_09_09_CCl4_50X_532nm_12mW_Kymera328_600gv_2000wn_3accum_1sec_DePol.csv
19.981,5567.000,5600.000,5640.000
37.206,5925.000,5896.000,5891.000
54.398,4798.000,4845.000,4774.000
71.561,3828.000,3799.000,3812.000
88.692,3384.000,3368.000,3375.000
105.792,3210.000,3184.000,3194.000
122.858,3126.000,3124.000,3139.000
139.896,3101.000,3116.000,3113.000
156.902,3099.000,3105.000,3108.000
173.875,3115.000,3113.000,3114.000
190.821,3230.000,3245.000,3255.000
207.733,3542.000,3536.000,3550.000
224.615,4371.000,4366.000,4339.000
241.467,4250.000,4234.000,4252.000
258.289,3431.000,3422.000,3424.000
275.081,3247.000,3237.000,3242.000
291.839,3417.000,3434.000,3430.000
308.570,3940.000,3950.000,3917.000
325.271,4876.000,4913.000,4834.000
341.938,3924.000,3986.000,3975.000
358.579,3226.000,3221.000,3210.000
375.189,3114.000,3123.000,3127.000
391.770,3091.000,3095.000,3089.000
408.318,3094.000,3091.000,3089.000
424.839,3105.000,3098.000,3101.000
441.330,3120.000,3117.000,3121.000
457.790,3190.000,3168.000,3188.000
474.222,3218.000,3219.000,3215.000
490.624,3127.000,3143.000,3135.000
506.995,3101.000,3100.000,3102.000
523.340,3096.000,3097.000,3093.000
539.654,3097.000,3088.000,3096.000
555.940,3100.000,3090.000,3101.000
572.195,3104.000,3103.000,3092.000
588.423,3104.000,3100.000,3091.000
604.621,3102.000,3104.000,3109.000
620.790,3099.000,3103.000,3105.000
636.931,3099.000,3095.000,3112.000
653.044,3105.000,3099.000,3112.000
669.128,3103.000,3111.000,3103.000
685.182,3127.000,3110.000,3113.000
701.210,3114.000,3105.000,3129.000
717.209,3140.000,3147.000,3144.000
733.177,3222.000,3228.000,3213.000
749.119,3405.000,3400.000,3404.000
765.033,3699.000,3680.000,3687.000
780.920,3775.000,3750.000,3732.000
796.776,3702.000,3725.000,3725.000
812.606,3484.000,3499.000,3489.000
828.410,3251.000,3259.000,3248.000
844.183,3160.000,3154.000,3154.000
859.930,3136.000,3136.000,3128.000
875.650,3111.000,3111.000,3106.000
891.339,3122.000,3109.000,3117.000
907.004,3118.000,3119.000,3126.000
922.642,3119.000,3112.000,3121.000
938.251,3109.000,3121.000,3138.000
953.832,3107.000,3123.000,3122.000
969.388,3122.000,3121.000,3128.000
984.916,3111.000,3118.000,3116.000
1000.416,3116.000,3112.000,3124.000
1015.891,3125.000,3115.000,3127.000
1031.338,3125.000,3127.000,3129.000
1046.757,3133.000,3137.000,3139.000
1062.151,3125.000,3129.000,3133.000
1077.519,3125.000,3127.000,3136.000
1092.859,3133.000,3131.000,3124.000
1108.171,3135.000,3144.000,3130.000
1123.459,3122.000,3131.000,3143.000
1138.721,3131.000,3129.000,3123.000
1153.954,3132.000,3132.000,3137.000
1169.162,3133.000,3133.000,3148.000
1184.345,3136.000,3136.000,3145.000
1199.501,3130.000,3136.000,3145.000
1214.629,3146.000,3141.000,3144.000
1229.734,3132.000,3135.000,3134.000
1244.812,3139.000,3130.000,3137.000
1259.864,3143.000,3135.000,3138.000
1274.889,3129.000,3141.000,3143.000
1289.891,3140.000,3150.000,3143.000
1304.866,3137.000,3151.000,3139.000
1319.814,3156.000,3141.000,3138.000
1334.738,3144.000,3136.000,3155.000
1349.637,3143.000,3149.000,3139.000
1364.509,3143.000,3139.000,3151.000
1379.357,3141.000,3140.000,3135.000
1394.180,3147.000,3147.000,3159.000
1408.978,3138.000,3159.000,3162.000
1423.747,3150.000,3161.000,3149.000
1438.495,3148.000,3145.000,3168.000
1453.218,3150.000,3142.000,3167.000
1467.913,3157.000,3151.000,3165.000
1482.586,3170.000,3167.000,3152.000
1497.233,3161.000,3169.000,3155.000
1511.854,3178.000,3169.000,3170.000
1526.452,3177.000,3159.000,3174.000
1541.026,3177.000,3182.000,3180.000
1555.575,3190.000,3206.000,3182.000
1570.098,3194.000,3208.000,3200.000
1584.598,3185.000,3188.000,3186.000
1599.073,3171.000,3166.000,3183.000
1613.523,3161.000,3169.000,3168.000
1627.950,3146.000,3163.000,3164.000
1642.353,3150.000,3158.000,3171.000
1656.729,3164.000,3160.000,3173.000
1671.084,3156.000,3159.000,3162.000
1685.415,3180.000,3162.000,3160.000
1699.721,3159.000,3153.000,3165.000
1714.002,3160.000,3156.000,3157.000
1728.262,3161.000,3162.000,3170.000
1742.497,3169.000,3155.000,3174.000
1756.707,3176.000,3155.000,3169.000
1770.894,3170.000,3166.000,3165.000
1785.059,3170.000,3174.000,3156.000
1799.198,3179.000,3185.000,3182.000
1813.314,3168.000,3164.000,3159.000
1827.408,3180.000,3175.000,3167.000
1841.478,3169.000,3176.000,3172.000
1855.524,3178.000,3170.000,3170.000
1869.547,3182.000,3196.000,3176.000
1883.547,3185.000,3175.000,3183.000
1897.525,3173.000,3185.000,3190.000
1911.477,3194.000,3193.000,3193.000
1925.409,3169.000,3173.000,3174.000
1939.317,3178.000,3186.000,3174.000
1953.201,3182.000,3168.000,3177.000
1967.063,3185.000,3184.000,3158.000
1980.903,3172.000,3174.000,3178.000
1994.718,3189.000,3172.000,3197.000
2008.513,3191.000,3181.000,3182.000
2022.284,3183.000,3178.000,3170.000
2036.031,3179.000,3184.000,3183.000
2049.758,3172.000,3199.000,3182.000
2063.462,3173.000,3179.000,3178.000
2077.145,3175.000,3202.000,3183.000
2090.802,3185.000,3190.000,3191.000
2104.439,3179.000,3185.000,3201.000
2118.054,3192.000,3192.000,3192.000
2131.644,3183.000,3191.000,3186.000
2145.215,3193.000,3203.000,3192.000
2158.763,3198.000,3182.000,3200.000
2172.290,3172.000,3185.000,3171.000
2185.793,3188.000,3204.000,3197.000
2199.275,3182.000,3192.000,3189.000
2212.736,3186.000,3189.000,3194.000
2226.174,3183.000,3204.000,3198.000
2239.591,3204.000,3181.000,3202.000
2252.985,3186.000,3189.000,3194.000
2266.359,3200.000,3196.000,3184.000
2279.710,3181.000,3192.000,3169.000
2293.040,3188.000,3187.000,3184.000
2306.349,3186.000,3184.000,3183.000
2319.635,3199.000,3200.000,3180.000
2332.901,3187.000,3180.000,3181.000
2346.147,3202.000,3177.000,3199.000
2359.370,3192.000,3204.000,3205.000
2372.571,3193.000,3185.000,3192.000
2385.751,3197.000,3209.000,3187.000
2398.912,3182.000,3198.000,3204.000
2412.048,3210.000,3182.000,3198.000
2425.167,3208.000,3183.000,3186.000
2438.264,3202.000,3197.000,3211.000
2451.339,3212.000,3195.000,3191.000
2464.393,3213.000,3203.000,3191.000
2477.427,3197.000,3209.000,3203.000
2490.440,3208.000,3188.000,3214.000
2503.432,3186.000,3205.000,3193.000
2516.404,3214.000,3193.000,3214.000
2529.355,3201.000,3190.000,3210.000
2542.284,3202.000,3193.000,3205.000
2555.195,3203.000,3204.000,3205.000
2568.084,3185.000,3186.000,3194.000
2580.952,3195.000,3201.000,3200.000
2593.800,3205.000,3202.000,3200.000
2606.629,3192.000,3200.000,3201.000
2619.437,3196.000,3194.000,3206.000
2632.224,3199.000,3190.000,3175.000
2644.992,3194.000,3195.000,3198.000
2657.739,3194.000,3198.000,3192.000
2670.466,3213.000,3203.000,3205.000
2683.172,3206.000,3198.000,3185.000
2695.861,3191.000,3191.000,3205.000
2708.528,3194.000,3213.000,3199.000
2721.174,3190.000,3205.000,3208.000
2733.801,3201.000,3201.000,3209.000
2746.409,3204.000,3203.000,3190.000
2758.996,3210.000,3196.000,3204.000
2771.564,3202.000,3207.000,3180.000
2784.114,3194.000,3199.000,3195.000
2796.642,3200.000,3199.000,3198.000
2809.150,3200.000,3183.000,3201.000
2821.640,3201.000,3203.000,3209.000
2834.111,3215.000,3194.000,3206.000
2846.560,3203.000,3190.000,3202.000
2858.992,3196.000,3197.000,3205.000
2871.404,3208.000,3196.000,3207.000
2883.797,3189.000,3211.000,3204.000
2896.169,3194.000,3202.000,3191.000
2908.523,3204.000,3183.000,3194.000
2920.859,3201.000,3202.000,3191.000
2933.173,3206.000,3202.000,3215.000
2945.470,3201.000,3215.000,3207.000
2957.748,3202.000,3210.000,3197.000
2970.006,3206.000,3205.000,3185.000
2982.246,3207.000,3202.000,3210.000
2994.467,3179.000,3178.000,3194.000
3006.667,3200.000,3186.000,3198.000
3018.851,3203.000,3190.000,3206.000
3031.016,3183.000,3200.000,3190.000
3043.161,3183.000,3194.000,3208.000
3055.287,3208.000,3181.000,3207.000
3067.395,3192.000,3204.000,3209.000
3079.485,3206.000,3194.000,3200.000
3091.555,3172.000,3176.000,3185.000
3103.608,3189.000,3194.000,3205.000
3115.643,3203.000,3210.000,3198.000
3127.658,3202.000,3185.000,3176.000
3139.654,3193.000,3187.000,3198.000
3151.634,3178.000,3187.000,3193.000
3163.594,3184.000,3204.000,3185.000
3175.535,3193.000,3202.000,3188.000
3187.459,3189.000,3177.000,3192.000
3199.365,3202.000,3194.000,3195.000
3211.253,3181.000,3196.000,3190.000
3223.122,3197.000,3188.000,3194.000
3234.974,3191.000,3204.000,3195.000
3246.808,3190.000,3191.000,3189.000
3258.622,3202.000,3182.000,3196.000
3270.419,3186.000,3213.000,3193.000
3282.199,3205.000,3199.000,3200.000
3293.962,3183.000,3187.000,3200.000
3305.705,3190.000,3191.000,3196.000
3317.431,3183.000,3204.000,3206.000
3329.139,3184.000,3190.000,3210.000
3340.829,3193.000,3189.000,3193.000
3352.502,3185.000,3186.000,3217.000
3364.158,3210.000,3208.000,3186.000
3375.796,3193.000,3210.000,3165.000
3387.415,3189.000,3195.000,3192.000
3399.018,3189.000,3208.000,3198.000
3410.604,3185.000,3194.000,3204.000
3422.171,3190.000,3192.000,3189.000
3433.722,3204.000,3196.000,3192.000
3445.255,3175.000,3187.000,3200.000
3456.771,3185.000,3200.000,3183.000
3468.269,3183.000,3182.000,3177.000
3479.751,3180.000,3181.000,3202.000
3491.215,3186.000,3187.000,3199.000
3502.662,3200.000,3178.000,3180.000
3514.091,3187.000,3180.000,3173.000
3525.505,3189.000,3187.000,3180.000
3536.900,3191.000,3194.000,3172.000
3548.279,3192.000,3178.000,3190.000
3559.641,3193.000,3199.000,3182.000
3570.985,3178.000,3189.000,3181.000
3582.313,3192.000,3187.000,3189.000
3590.799,3184.000,3176.000,3190.000

File: 2025_09_09_CCl4_50X_532nm_12mW_Kymera328_600gv_2000wn_3accum_1sec_Pol.csv
19.981,6874.000,6853.000,6876.000
37.206,7235.000,7293.000,7211.000
54.398,5650.000,5645.000,5692.000
71.561,4229.000,4232.000,4251.000
88.692,3583.000,3551.000,3558.000
105.792,3310.000,3306.000,3290.000
122.858,3185.000,3177.000,3189.000
139.896,3140.000,3141.000,3141.000
156.902,3142.000,3118.000,3128.000
173.875,3141.000,3154.000,3139.000
190.821,3303.000,3300.000,3285.000
207.733,3697.000,3662.000,3663.000
224.615,4719.000,4756.000,4704.000
241.467,4525.000,4482.000,4523.000
258.289,3537.000,3540.000,3535.000
275.081,3311.000,3303.000,3316.000
291.839,3557.000,3566.000,3534.000
308.570,4203.000,4186.000,4181.000
325.271,5413.000,6338.000,5389.000
341.938,4174.000,4243.000,4188.000
358.579,3316.000,3300.000,3282.000
375.189,3175.000,3163.000,3174.000
391.770,3140.000,3135.000,3140.000
408.318,3183.000,3172.000,3174.000
424.839,3451.000,3451.000,3462.000
441.330,4754.000,4689.000,4726.000
457.790,7808.000,7841.000,7816.000
474.222,9588.000,9481.000,9551.000
490.624,5177.000,5241.000,5158.000
506.995,3363.000,3390.000,3386.000
523.340,3148.000,3139.000,3140.000
539.654,3117.000,3139.000,3123.000
555.940,3114.000,3099.000,3127.000
572.195,3103.000,3115.000,3110.000
588.423,3111.000,3105.000,3124.000
604.621,3106.000,3108.000,3106.000
620.790,3122.000,3113.000,3119.000
636.931,3131.000,3120.000,3115.000
653.044,3131.000,3125.000,3130.000
669.128,3135.000,3125.000,3120.000
685.182,3136.000,3134.000,3131.000
701.210,3125.000,3154.000,3140.000
717.209,3179.000,3171.000,3171.000
733.177,3263.000,3271.000,3257.000
749.119,3483.000,3485.000,3508.000
765.033,3881.000,3884.000,3845.000
780.920,3948.000,3951.000,3960.000
796.776,3893.000,3933.000,3940.000
812.606,3598.000,3628.000,3628.000
828.410,3311.000,3300.000,3326.000
844.183,3192.000,3198.000,3196.000
859.930,3162.000,3151.000,3152.000
875.650,3133.000,3142.000,3151.000
891.339,3133.000,3138.000,3131.000
907.004,3127.000,3129.000,3130.000
922.642,3133.000,3134.000,3135.000
938.251,3139.000,3145.000,3128.000
953.832,3139.000,3145.000,3131.000
969.388,3138.000,3123.000,3145.000
984.916,3132.000,3134.000,3142.000
1000.416,3139.000,3145.000,3143.000
1015.891,3131.000,3137.000,3142.000
1031.338,3129.000,3149.000,3138.000
1046.757,3140.000,3129.000,3139.000
1062.151,3137.000,3144.000,3152.000
1077.519,3141.000,3138.000,3142.000
1092.859,3164.000,3141.000,3147.000
1108.171,3143.000,3145.000,3147.000
1123.459,3147.000,3146.000,3148.000
1138.721,3164.000,3159.000,3144.000
1153.954,3161.000,3154.000,3151.000
1169.162,3156.000,3159.000,3149.000
1184.345,3146.000,3146.000,3154.000
1199.501,3142.000,3151.000,3149.000
1214.629,3153.000,3165.000,3155.000
1229.734,3145.000,3152.000,3151.000
1244.812,3168.000,3159.000,3163.000
1259.864,3157.000,3153.000,3152.000
1274.889,3173.000,3149.000,3144.000
1289.891,3150.000,3165.000,3157.000
1304.866,3155.000,3164.000,3145.000
1319.814,3162.000,3144.000,3140.000
1334.738,3156.000,3169.000,3156.000
1349.637,3163.000,3163.000,3150.000
1364.509,3164.000,3151.000,3150.000
1379.357,3157.000,3166.000,3173.000
1394.180,3173.000,3172.000,3169.000
1408.978,3158.000,3177.000,3165.000
1423.747,3172.000,3167.000,3174.000
1438.495,3176.000,3166.000,3156.000
1453.218,3167.000,3164.000,3177.000
1467.913,3176.000,3186.000,3180.000
1482.586,3187.000,3199.000,3200.000
1497.233,3225.000,3228.000,3227.000
1511.854,3283.000,3282.000,3287.000
1526.452,3324.000,3335.000,3349.000
1541.026,3370.000,3345.000,3346.000
1555.575,3291.000,3294.000,3273.000
1570.098,3264.000,3254.000,3271.000
1584.598,3250.000,3238.000,3257.000
1599.073,3231.000,3217.000,3219.000
1613.523,3215.000,3216.000,3200.000
1627.950,3187.000,3177.000,3183.000
1642.353,3181.000,3196.000,3199.000
1656.729,3166.000,3181.000,3180.000
1671.084,3198.000,3188.000,3184.000
1685.415,3197.000,3193.000,3183.000
1699.721,3192.000,3200.000,3186.000
1714.002,3182.000,3190.000,3183.000
1728.262,3193.000,3194.000,3186.000
1742.497,3183.000,3170.000,3174.000
1756.707,3191.000,3186.000,3207.000
1770.894,3188.000,3180.000,3193.000
1785.059,3182.000,3190.000,3188.000
1799.198,3192.000,3183.000,3201.000
1813.314,3194.000,3194.000,3188.000
1827.408,3171.000,3192.000,3185.000
1841.478,3200.000,3195.000,3185.000
1855.524,3191.000,3196.000,3187.000
1869.547,3209.000,3207.000,3195.000
1883.547,3212.000,3206.000,3203.000
1897.525,3189.000,3207.000,3198.000
1911.477,3195.000,3189.000,3187.000
1925.409,3208.000,3199.000,3194.000
1939.317,3191.000,3199.000,3193.000
1953.201,3201.000,3214.000,3201.000
1967.063,3217.000,3189.000,3207.000
1980.903,3194.000,3193.000,3192.000
1994.718,3201.000,3205.000,3213.000
2008.513,3196.000,3199.000,3203.000
2022.284,3199.000,3199.000,3191.000
2036.031,3190.000,3202.000,3192.000
2049.758,3208.000,3190.000,3217.000
2063.462,3190.000,3215.000,3227.000
2077.145,3217.000,3223.000,3202.000
2090.802,3213.000,3217.000,3216.000
2104.439,3211.000,3207.000,3195.000
2118.054,3213.000,3209.000,3194.000
2131.644,3187.000,3213.000,3209.000
2145.215,3205.000,3200.000,3202.000
2158.763,3203.000,3193.000,3214.000
2172.290,3215.000,3194.000,3206.000
2185.793,3191.000,3213.000,3211.000
2199.275,3199.000,3190.000,3227.000
2212.736,3204.000,3210.000,3210.000
2226.174,3188.000,3205.000,3202.000
2239.591,3213.000,3213.000,3214.000
2252.985,3196.000,3215.000,3220.000
2266.359,3211.000,3228.000,3222.000
2279.710,3225.000,3208.000,3224.000
2293.040,3215.000,3217.000,3204.000
2306.349,3229.000,3217.000,3205.000
2319.635,3209.000,3224.000,3199.000
2332.901,3216.000,3219.000,3209.000
2346.147,3208.000,3227.000,3228.000
2359.370,3223.000,3223.000,3225.000
2372.571,3217.000,3231.000,3214.000
2385.751,3226.000,3227.000,3215.000
2398.912,3247.000,3209.000,3212.000
2412.048,3218.000,3213.000,3213.000
2425.167,3232.000,3222.000,3222.000
2438.264,3224.000,3223.000,3226.000
2451.339,3221.000,3234.000,3221.000
2464.393,3237.000,3218.000,3207.000
2477.427,3232.000,3203.000,3228.000
2490.440,3228.000,3213.000,3217.000
2503.432,3221.000,3227.000,3211.000
2516.404,3250.000,3233.000,3217.000
2529.355,3232.000,3228.000,3231.000
2542.284,3228.000,3223.000,3228.000
2555.195,3197.000,3213.000,3223.000
2568.084,3227.000,3216.000,3230.000
2580.952,3216.000,3219.000,3232.000
2593.800,3232.000,3223.000,3223.000
2606.629,3209.000,3222.000,3226.000
2619.437,3220.000,3229.000,3232.000
2632.224,3232.000,3242.000,3225.000
2644.992,3226.000,3205.000,3228.000
2657.739,3235.000,3238.000,3218.000
2670.466,3229.000,3227.000,3226.000
2683.172,3224.000,3206.000,3224.000
2695.861,3230.000,3219.000,3226.000
2708.528,3236.000,3223.000,3218.000
2721.174,3232.000,3230.000,3217.000
2733.801,3230.000,3219.000,3229.000
2746.409,3230.000,3218.000,3227.000
2758.996,3206.000,3229.000,3221.000
2771.564,3221.000,3231.000,3210.000
2784.114,3224.000,3247.000,3225.000
2796.642,3202.000,3225.000,3209.000
2809.150,3221.000,3218.000,3206.000
2821.640,3221.000,3207.000,3213.000
2834.111,3234.000,3216.000,3233.000
2846.560,3213.000,3238.000,3213.000
2858.992,3227.000,3236.000,3234.000
2871.404,3255.000,3240.000,3227.000
2883.797,3245.000,3239.000,3232.000
2896.169,3240.000,3236.000,3231.000
2908.523,3248.000,3252.000,3270.000
2920.859,3235.000,3250.000,3249.000
2933.173,3254.000,3244.000,3243.000
2945.470,3251.000,3241.000,3262.000
2957.748,3238.000,3247.000,3233.000
2970.006,3234.000,3237.000,3226.000
2982.246,3247.000,3244.000,3237.000
2994.467,3244.000,3226.000,3233.000
3006.667,3251.000,3213.000,3248.000
3018.851,3229.000,3240.000,3217.000
3031.016,3242.000,3226.000,3227.000
3043.161,3227.000,3228.000,3240.000
3055.287,3247.000,3225.000,3225.000
3067.395,3239.000,3231.000,3242.000
3079.485,3222.000,3242.000,3251.000
3091.555,3232.000,3240.000,3226.000
3103.608,3217.000,3247.000,3222.000
3115.643,3233.000,3237.000,3244.000
3127.658,3215.000,3241.000,3231.000
3139.654,3225.000,3236.000,3227.000
3151.634,3242.000,3229.000,3237.000
3163.594,3223.000,3228.000,3243.000
3175.535,3235.000,3228.000,3221.000
3187.459,3229.000,3226.000,3226.000
3199.365,3220.000,3224.000,3218.000
3211.253,3250.000,3227.000,3220.000
3223.122,3236.000,3238.000,3235.000
3234.974,3235.000,3229.000,3225.000
3246.808,3244.000,3230.000,3216.000
3258.622,3234.000,3226.000,3231.000
3270.419,3248.000,3223.000,3241.000
3282.199,3236.000,3220.000,3231.000
3293.962,3236.000,3221.000,3228.000
3305.705,3230.000,3230.000,3228.000
3317.431,3221.000,3235.000,3248.000
3329.139,3225.000,3239.000,3237.000
3340.829,3235.000,3227.000,3226.000
3352.502,3239.000,3211.000,3231.000
3364.158,3211.000,3230.000,3233.000
3375.796,3212.000,3227.000,3228.000
3387.415,3223.000,3215.000,3237.000
3399.018,3220.000,3253.000,3239.000
3410.604,3221.000,3209.000,3209.000
3422.171,3221.000,3225.000,3244.000
3433.722,3210.000,3212.000,3213.000
3445.255,3221.000,3228.000,3216.000
3456.771,3217.000,3225.000,3240.000
3468.269,3219.000,3217.000,3219.000
3479.751,3232.000,3236.000,3233.000
3491.215,3230.000,3224.000,3221.000
3502.662,3236.000,3234.000,3211.000
3514.091,3227.000,3216.000,3203.000
3525.505,3228.000,3219.000,3211.000
3536.900,3243.000,3209.000,3219.000
3548.279,3221.000,3228.000,3216.000
3559.641,3215.000,3221.000,3214.000
3570.985,3214.000,3235.000,3219.000
3582.313,3232.000,3212.000,3232.000
3590.799,3230.000,3228.000,3218.000