Folder: Data/Raman/Silica (part 7)

File: 2022_12_08_Albite_Glass_532nm_Pol_74mW_750mm_600gv_977wn_iDus_30s_3accum.csv
34.493,4184.000,4028.000,3994.000
42.233,4627.000,4493.000,4395.000
49.965,4785.000,4641.000,4579.000
57.693,4840.000,4513.000,4550.000
65.412,4863.000,4664.000,4529.000
73.127,4799.000,4609.000,4588.000
80.834,4567.000,4427.000,4415.000
88.536,4574.000,4327.000,4306.000
96.232,4447.000,4384.000,4352.000
103.919,4228.000,4068.000,4077.000
111.603,4241.000,4026.000,3991.000
119.278,4126.000,3940.000,3921.000
126.948,3987.000,3806.000,3803.000
134.613,3876.000,3702.000,3619.000
142.269,3864.000,3682.000,3629.000
149.920,3650.000,3461.000,3450.000
157.564,3575.000,3389.000,3412.000
165.203,3599.000,3368.000,3432.000
172.834,3523.000,3319.000,3302.000
180.461,3501.000,3256.000,3189.000
188.081,3507.000,3337.000,3271.000
195.693,3478.000,3312.000,3228.000
203.302,3475.000,3230.000,3200.000
210.901,3507.000,3345.000,3248.000
218.497,3542.000,3339.000,3274.000
226.084,3548.000,3329.000,3215.000
233.667,3649.000,3433.000,3371.000
241.244,3664.000,3475.000,3398.000
248.813,3655.000,3477.000,3415.000
256.378,3815.000,3594.000,3509.000
263.934,3860.000,3632.000,3605.000
271.487,3772.000,3642.000,3602.000
279.031,3955.000,3768.000,3650.000
286.571,4003.000,3753.000,3700.000
294.105,3966.000,3760.000,3761.000
301.630,4134.000,3970.000,3859.000
309.152,4218.000,3973.000,3917.000
316.666,4254.000,3928.000,3875.000
324.175,4342.000,4035.000,4086.000
331.678,4342.000,4145.000,4069.000
339.173,4391.000,4132.000,4041.000
346.665,4504.000,4330.000,4238.000
354.148,4608.000,4329.000,4296.000
361.627,4682.000,4389.000,4310.000
369.098,4720.000,4526.000,4482.000
376.564,4816.000,4511.000,4458.000
384.025,4838.000,4624.000,4552.000
391.478,5153.000,4782.000,4738.000
398.927,5082.000,4862.000,4706.000
406.367,5142.000,4942.000,4854.000
413.804,5287.000,5037.000,5099.000
421.233,5349.000,5059.000,5023.000
428.658,5488.000,5263.000,5194.000
436.076,5811.000,5543.000,5447.000
443.487,5771.000,5610.000,5478.000
450.894,5982.000,5617.000,5621.000
458.292,6076.000,5820.000,5709.000
465.687,6053.000,5762.000,5637.000
473.076,6055.000,5800.000,5746.000
480.457,6158.000,5888.000,5853.000
487.834,6033.000,5739.000,5635.000
495.203,5819.000,5638.000,5505.000
502.568,5479.000,5176.000,5131.000
509.925,4935.000,4656.000,4505.000
517.278,4452.000,4127.000,4057.000
524.626,4108.000,3714.000,3684.000
531.965,3716.000,3381.000,3296.000
539.300,3600.000,3156.000,3160.000
546.628,3332.000,3095.000,3059.000
553.952,3263.000,2984.000,2948.000
561.268,3287.000,3087.000,3025.000
568.580,3256.000,2984.000,3012.000
575.886,3357.000,3010.000,3000.000
583.184,3320.000,2935.000,2911.000
590.479,3091.000,2764.000,2755.000
597.765,3095.000,2752.000,2636.000
605.048,2836.000,2568.000,2498.000
612.323,2692.000,2375.000,2295.000
619.594,2692.000,2340.000,2211.000
626.859,2549.000,2171.000,2150.000
634.117,2430.000,2139.000,1992.000
641.371,2425.000,2083.000,2011.000
648.616,2328.000,2034.000,1928.000
655.859,2318.000,1932.000,1898.000
663.095,2325.000,1969.000,1859.000
670.324,2246.000,1916.000,1841.000
677.548,2267.000,1880.000,1819.000
684.765,2277.000,1891.000,1828.000
691.979,2216.000,1880.000,1778.000
699.184,2204.000,1874.000,1784.000
706.386,2236.000,1869.000,1799.000
713.582,2164.000,1849.000,1769.000
720.771,2212.000,1852.000,1788.000
727.955,2209.000,1831.000,1779.000
735.132,2195.000,1856.000,1766.000
742.306,2226.000,1853.000,1747.000
749.471,2235.000,1842.000,1744.000
756.633,2211.000,1877.000,1777.000
763.789,2297.000,1850.000,1746.000
770.938,2209.000,1856.000,1773.000
778.083,2279.000,1865.000,1819.000
785.220,2274.000,1894.000,1795.000
792.354,2218.000,1860.000,1757.000
799.479,2266.000,1850.000,1761.000
806.602,2132.000,1783.000,1733.000
813.718,2131.000,1756.000,1675.000
820.827,2088.000,1734.000,1607.000
827.933,2005.000,1622.000,1546.000
835.031,1977.000,1604.000,1498.000
842.125,1902.000,1525.000,1445.000
849.213,1914.000,1567.000,1458.000
856.294,1911.000,1526.000,1454.000
863.372,1983.000,1566.000,1454.000
870.441,1936.000,1557.000,1461.000
877.508,1932.000,1557.000,1451.000
884.566,1922.000,1525.000,1484.000
891.621,1937.000,1593.000,1470.000
898.671,1887.000,1533.000,1436.000
905.713,1933.000,1556.000,1464.000
912.751,1940.000,1602.000,1506.000
919.782,1978.000,1547.000,1485.000
926.810,2034.000,1653.000,1522.000
933.830,2063.000,1707.000,1577.000
940.846,2120.000,1720.000,1615.000
947.857,2141.000,1739.000,1680.000
954.860,2149.000,1786.000,1650.000
961.860,2232.000,1821.000,1699.000
968.853,2264.000,1894.000,1773.000
975.841,2343.000,1983.000,1837.000
982.825,2523.000,2081.000,1997.000
989.801,2486.000,2159.000,2052.000
996.773,2554.000,2202.000,2025.000
1003.738,2542.000,2098.000,2067.000
1010.700,2466.000,2039.000,1991.000
1017.654,2461.000,2086.000,2028.000
1024.605,2544.000,2126.000,2038.000
1031.550,2542.000,2199.000,2026.000
1038.488,2652.000,2249.000,2073.000
1045.422,2621.000,2212.000,2102.000
1052.349,2730.000,2331.000,2198.000
1059.273,2797.000,2334.000,2252.000
1066.189,2785.000,2366.000,2236.000
1073.102,2848.000,2385.000,2308.000
1080.009,2763.000,2380.000,2306.000
1086.909,2883.000,2431.000,2323.000
1093.806,2885.000,2415.000,2385.000
1100.695,2851.000,2409.000,2267.000
1107.581,2737.000,2361.000,2271.000
1114.462,2734.000,2332.000,2189.000
1121.335,2772.000,2405.000,2254.000
1128.205,2725.000,2335.000,2232.000
1135.067,2592.000,2156.000,2065.000
1141.927,2550.000,2122.000,2003.000
1148.779,2464.000,2037.000,1949.000
1155.627,2421.000,1959.000,1892.000
1162.470,2431.000,1978.000,1848.000
1169.306,2251.000,1878.000,1770.000
1176.139,2263.000,1818.000,1730.000
1182.964,2180.000,1738.000,1637.000
1189.786,2182.000,1740.000,1596.000
1196.601,2141.000,1695.000,1557.000
1203.413,2021.000,1612.000,1479.000
1210.219,1982.000,1566.000,1462.000
1217.018,1952.000,1513.000,1426.000
1223.814,1980.000,1513.000,1411.000
1230.602,1986.000,1514.000,1363.000
1237.387,1948.000,1508.000,1388.000
1244.166,1889.000,1490.000,1373.000
1250.940,1902.000,1456.000,1346.000
1257.710,1973.000,1477.000,1394.000
1264.472,1917.000,1538.000,1414.000
1271.231,1985.000,1543.000,1422.000
1277.983,1965.000,1519.000,1436.000
1284.732,2011.000,1578.000,1452.000
1291.473,2088.000,1647.000,1525.000
1298.212,2100.000,1584.000,1517.000
1304.945,2028.000,1581.000,1435.000
1311.671,1982.000,1512.000,2304.000
1318.393,1914.000,1439.000,1352.000
1325.109,1923.000,1475.000,1354.000
1331.822,1959.000,1475.000,1371.000
1338.529,1904.000,1479.000,1393.000
1345.229,1922.000,1498.000,1387.000
1351.926,1892.000,1447.000,1343.000
1358.616,1939.000,1450.000,1351.000
1365.303,1933.000,1472.000,1367.000
1371.982,1948.000,1495.000,1387.000
1378.659,1936.000,1484.000,1324.000
1385.330,1903.000,1473.000,1360.000
1391.994,1932.000,1464.000,1349.000
1398.656,1979.000,1482.000,1372.000
1405.310,1987.000,1524.000,1440.000
1411.961,2043.000,1545.000,1433.000
1418.605,2029.000,1606.000,1435.000
1425.245,2175.000,1714.000,1607.000
1431.881,2315.000,1800.000,1693.000
1438.510,2290.000,1798.000,1611.000
1445.135,2216.000,1734.000,1582.000
1451.754,2211.000,1723.000,1558.000
1458.370,2226.000,1676.000,1541.000
1464.980,2037.000,1596.000,1464.000
1471.583,1966.000,1529.000,1399.000
1478.184,1929.000,1456.000,1373.000
1484.777,1971.000,1455.000,1359.000
1491.368,1994.000,1498.000,1384.000
1497.951,1993.000,1465.000,1379.000
1504.531,2003.000,1484.000,1385.000
1511.107,1950.000,1465.000,1377.000
1517.675,1967.000,1466.000,1393.000
1524.240,1980.000,1447.000,1348.000
1530.799,1998.000,1495.000,1388.000
1537.354,1983.000,1478.000,1395.000
1543.903,2016.000,1493.000,1371.000
1550.448,1970.000,1489.000,1370.000
1556.988,2006.000,1476.000,1374.000
1563.522,2074.000,1487.000,1402.000
1570.052,2004.000,1507.000,1375.000
1576.576,2030.000,1478.000,1398.000
1583.097,2041.000,1476.000,1398.000
1589.612,2075.000,1533.000,1406.000
1596.121,2082.000,1557.000,1452.000
1602.627,2037.000,1552.000,1410.000
1609.126,2103.000,1551.000,1404.000
1615.622,2040.000,1512.000,1402.000
1622.112,2088.000,1567.000,1453.000
1628.598,2080.000,1536.000,1397.000
1635.079,2066.000,1532.000,1403.000
1641.554,2043.000,1495.000,1415.000
1648.025,2009.000,1527.000,1399.000
1654.490,2011.000,1551.000,1371.000
1660.952,2040.000,1541.000,1391.000
1667.407,2029.000,1523.000,1388.000
1673.859,2005.000,1533.000,1382.000
1680.306,1974.000,1482.000,1359.000
1686.746,2016.000,1510.000,1370.000
1693.184,1994.000,1508.000,1358.000
1699.615,2088.000,1549.000,1433.000
1706.042,2022.000,1570.000,1411.000
1712.465,2069.000,1543.000,1431.000
1718.882,2072.000,1563.000,1407.000
1725.295,1973.000,1509.000,1392.000
1731.702,2022.000,1513.000,1412.000
1738.105,2019.000,1511.000,1407.000
1744.502,2024.000,1491.000,1403.000
1750.897,2035.000,1496.000,1397.000
1757.284,1991.000,1481.000,1389.000
1763.669,2018.000,1484.000,1354.000
1770.048,1996.000,1451.000,1329.000
1776.421,1928.000,1452.000,1333.000
1782.792,1948.000,1419.000,1308.000
1789.155,1945.000,1440.000,1341.000
1795.516,1958.000,1488.000,1329.000
1801.872,1943.000,1474.000,1359.000
1808.221,1988.000,1478.000,1384.000
1814.567,2007.000,1489.000,1383.000
1820.907,2020.000,1493.000,1375.000
1825.661,2066.000,1522.000,1381.000

File: 2022_12_08_Qtz_355nm_DePol_11mW_750mm_600gv_2150wn_iDus_10s_1accum_50x_Mit_UV_Lens.csv
64.816,640.000
82.386,645.000
99.935,640.000
117.462,643.000
134.967,636.000
152.452,640.000
169.913,638.000
187.353,641.000
204.771,636.000
222.167,639.000
239.541,641.000
256.894,638.000
274.225,641.000
291.537,641.000
308.826,639.000
326.093,643.000
343.338,637.000
360.562,642.000
377.765,638.000
394.947,632.000
412.107,641.000
429.246,640.000
446.367,640.000
463.464,637.000
480.540,647.000
497.594,649.000
514.628,639.000
531.641,638.000
548.633,636.000
565.604,645.000
582.554,647.000
599.486,649.000
616.394,643.000
633.282,634.000
650.149,639.000
666.996,644.000
683.822,640.000
700.627,638.000
717.412,643.000
734.176,632.000
750.923,643.000
767.646,642.000
784.349,639.000
801.032,640.000
817.694,636.000
834.336,647.000
850.958,648.000
867.560,649.000
884.143,637.000
900.705,641.000
917.246,640.000
933.767,635.000
950.269,640.000
966.750,643.000
983.211,647.000
999.652,641.000
1016.074,637.000
1032.478,642.000
1048.860,643.000
1065.222,642.000
1081.564,644.000
1097.887,644.000
1114.190,636.000
1130.473,640.000
1146.737,636.000
1162.983,639.000
1179.208,646.000
1195.413,636.000
1211.599,639.000
1227.765,645.000
1243.912,639.000
1260.040,639.000
1276.148,646.000
1292.237,642.000
1308.307,643.000
1324.360,641.000
1340.391,646.000
1356.403,637.000
1372.396,644.000
1388.371,646.000
1404.326,651.000
1420.262,640.000
1436.179,642.000
1452.079,639.000
1467.959,647.000
1483.819,642.000
1499.661,631.000
1515.483,646.000
1531.287,637.000
1547.073,642.000
1562.839,638.000
1578.587,643.000
1594.319,643.000
1610.029,646.000
1625.721,649.000
1641.395,645.000
1657.050,647.000
1672.687,647.000
1688.305,652.000
1703.905,655.000
1719.488,649.000
1735.051,645.000
1750.596,659.000
1766.123,650.000
1781.631,653.000
1797.121,650.000
1812.593,660.000
1828.047,650.000
1843.482,652.000
1858.902,661.000
1874.302,662.000
1889.683,658.000
1905.047,659.000
1920.392,655.000
1935.720,663.000
1951.030,661.000
1966.321,669.000
1981.598,666.000
1996.854,677.000
2012.092,673.000
2027.313,677.000
2042.516,677.000
2057.702,682.000
2072.869,680.000
2088.019,691.000
2103.152,687.000
2118.267,692.000
2133.367,699.000
2148.446,693.000
2163.509,689.000
2178.554,698.000
2193.582,687.000
2208.592,691.000
2223.585,697.000
2238.561,702.000
2253.521,702.000
2268.462,711.000
2283.386,723.000
2298.293,718.000
2313.183,734.000
2328.055,736.000
2342.911,732.000
2357.749,744.000
2372.570,742.000
2387.376,766.000
2402.164,767.000
2416.934,772.000
2431.687,770.000
2446.424,779.000
2461.143,772.000
2475.846,777.000
2490.532,781.000
2505.203,771.000
2519.856,771.000
2534.492,778.000
2549.111,795.000
2563.713,792.000
2578.299,815.000
2592.868,807.000
2607.420,819.000
2621.956,822.000
2636.476,836.000
2650.981,866.000
2665.467,872.000
2679.937,878.000
2694.391,893.000
2708.828,913.000
2723.249,918.000
2737.654,917.000
2752.044,923.000
2766.416,913.000
2780.772,935.000
2795.111,943.000
2809.435,922.000
2823.742,944.000
2838.033,947.000
2852.308,947.000
2866.567,932.000
2880.810,964.000
2895.038,948.000
2909.249,956.000
2923.444,973.000
2937.623,997.000
2951.786,1019.000
2965.933,1050.000
2980.064,1066.000
2994.180,1077.000
3008.281,1099.000
3022.365,1111.000
3036.433,1104.000
3050.485,1155.000
3064.522,1160.000
3078.543,1143.000
3092.548,1150.000
3106.538,1195.000
3120.512,1154.000
3134.472,1158.000
3148.415,1178.000
3162.342,1173.000
3176.254,1140.000
3190.151,1154.000
3204.032,1145.000
3217.897,1149.000
3231.747,1178.000
3245.584,1160.000
3259.403,1205.000
3273.208,1228.000
3286.996,1226.000
3300.770,1258.000
3314.528,1298.000
3328.271,1295.000
3341.999,1303.000
3355.712,1336.000
3369.410,1370.000
3383.094,1372.000
3396.761,1360.000
3410.414,1380.000
3424.051,1332.000
3437.673,1350.000
3451.281,1348.000
3464.873,1336.000
3478.452,1326.000
3492.015,1341.000
3505.562,1366.000
3519.095,1329.000
3532.613,1318.000
3546.116,1342.000
3559.604,1323.000
3573.078,1366.000
3586.537,1376.000
3599.981,1401.000
3613.412,1420.000
3626.826,1440.000
3640.226,1469.000
3653.612,1457.000
3666.983,1451.000
3680.339,1518.000
3693.681,1571.000
3707.008,1519.000
3720.322,1572.000
3733.620,1539.000
3746.904,1563.000
3760.173,1536.000
3773.428,1522.000
3786.668,1526.000
3799.895,1483.000
3813.106,1482.000
3826.304,1497.000
3839.489,1476.000
3852.657,1512.000
3865.812,1443.000
3878.952,1494.000
3892.079,1483.000
3905.191,1494.000
3918.288,1528.000
3931.372,1557.000
3941.177,1555.000

File: 2022_12_08_Qtz_355nm_Pol_11mW_750mm_600gv_2150wn_iDus_10s_1accum_50x_Mit_UV_Lens.csv
64.816,641.000
82.386,636.000
99.935,639.000
117.462,639.000
134.967,642.000
152.452,633.000
169.913,642.000
187.353,638.000
204.771,640.000
222.167,643.000
239.541,642.000
256.894,641.000
274.225,638.000
291.537,646.000
308.826,642.000
326.093,640.000
343.338,639.000
360.562,635.000
377.765,639.000
394.947,649.000
412.107,641.000
429.246,644.000
446.367,640.000
463.464,635.000
480.540,636.000
497.594,647.000
514.628,647.000
531.641,632.000
548.633,642.000
565.604,639.000
582.554,638.000
599.486,637.000
616.394,643.000
633.282,631.000
650.149,639.000
666.996,639.000
683.822,639.000
700.627,650.000
717.412,643.000
734.176,639.000
750.923,642.000
767.646,643.000
784.349,631.000
801.032,645.000
817.694,638.000
834.336,635.000
850.958,642.000
867.560,650.000
884.143,645.000
900.705,645.000
917.246,640.000
933.767,646.000
950.269,642.000
966.750,636.000
983.211,642.000
999.652,639.000
1016.074,642.000
1032.478,638.000
1048.860,642.000
1065.222,640.000
1081.564,639.000
1097.887,645.000
1114.190,642.000
1130.473,640.000
1146.737,637.000
1162.983,643.000
1179.208,639.000
1195.413,638.000
1211.599,641.000
1227.765,642.000
1243.912,636.000
1260.040,650.000
1276.148,643.000
1292.237,642.000
1308.307,640.000
1324.360,646.000
1340.391,642.000
1356.403,639.000
1372.396,636.000
1388.371,650.000
1404.326,642.000
1420.262,642.000
1436.179,642.000
1452.079,643.000
1467.959,644.000
1483.819,639.000
1499.661,638.000
1515.483,637.000
1531.287,643.000
1547.073,644.000
1562.839,641.000
1578.587,642.000
1594.319,641.000
1610.029,645.000
1625.721,637.000
1641.395,641.000
1657.050,644.000
1672.687,643.000
1688.305,636.000
1703.905,647.000
1719.488,648.000
1735.051,642.000
1750.596,644.000
1766.123,4060.000
1781.631,644.000
1797.121,642.000
1812.593,643.000
1828.047,645.000
1843.482,651.000
1858.902,650.000
1874.302,652.000
1889.683,645.000
1905.047,647.000
1920.392,654.000
1935.720,646.000
1951.030,655.000
1966.321,644.000
1981.598,651.000
1996.854,648.000
2012.092,661.000
2027.313,655.000
2042.516,659.000
2057.702,667.000
2072.869,658.000
2088.019,662.000
2103.152,660.000
2118.267,654.000
2133.367,654.000
2148.446,656.000
2163.509,662.000
2178.554,657.000
2193.582,653.000
2208.592,652.000
2223.585,659.000
2238.561,659.000
2253.521,664.000
2268.462,670.000
2283.386,664.000
2298.293,671.000
2313.183,671.000
2328.055,669.000
2342.911,678.000
2357.749,671.000
2372.570,684.000
2387.376,685.000
2402.164,673.000
2416.934,677.000
2431.687,684.000
2446.424,672.000
2461.143,676.000
2475.846,685.000
2490.532,684.000
2505.203,682.000
2519.856,687.000
2534.492,687.000
2549.111,699.000
2563.713,695.000
2578.299,702.000
2592.868,699.000
2607.420,707.000
2621.956,699.000
2636.476,709.000
2650.981,715.000
2665.467,715.000
2679.937,712.000
2694.391,708.000
2708.828,712.000
2723.249,711.000
2737.654,720.000
2752.044,725.000
2766.416,721.000
2780.772,728.000
2795.111,732.000
2809.435,741.000
2823.742,746.000
2838.033,735.000
2852.308,725.000
2866.567,751.000
2880.810,748.000
2895.038,762.000
2909.249,753.000
2923.444,750.000
2937.623,769.000
2951.786,759.000
2965.933,769.000
2980.064,774.000
2994.180,767.000
3008.281,777.000
3022.365,768.000
3036.433,775.000
3050.485,767.000
3064.522,784.000
3078.543,785.000
3092.548,812.000
3106.538,811.000
3120.512,843.000
3134.472,816.000
3148.415,836.000
3162.342,839.000
3176.254,850.000
3190.151,851.000
3204.032,860.000
3217.897,840.000
3231.747,846.000
3245.584,840.000
3259.403,853.000
3273.208,830.000
3286.996,843.000
3300.770,855.000
3314.528,846.000
3328.271,839.000
3341.999,851.000
3355.712,868.000
3369.410,861.000
3383.094,885.000
3396.761,866.000
3410.414,877.000
3424.051,915.000
3437.673,896.000
3451.281,899.000
3464.873,912.000
3478.452,914.000
3492.015,940.000
3505.562,929.000
3519.095,935.000
3532.613,926.000
3546.116,939.000
3559.604,959.000
3573.078,916.000
3586.537,945.000
3599.981,907.000
3613.412,917.000
3626.826,951.000
3640.226,883.000
3653.612,935.000
3666.983,913.000
3680.339,915.000
3693.681,927.000
3707.008,920.000
3720.322,930.000
3733.620,929.000
3746.904,940.000
3760.173,943.000
3773.428,959.000
3786.668,956.000
3799.895,978.000
3813.106,992.000
3826.304,993.000
3839.489,1005.000
3852.657,1024.000
3865.812,1061.000
3878.952,1051.000
3892.079,1016.000
3905.191,1047.000
3918.288,1042.000
3931.372,1048.000
3941.177,1029.000

File: 2022_12_08_Qtz_355nm_UnPol_1p6mW_750mm_600gv_2150wn_iDus_10s_1accum_50x_Mit_UV_Lens.csv
64.816,3667.000
82.386,697.000
99.935,832.000
117.462,1167.000
134.967,1033.000
152.452,787.000
169.913,680.000
187.353,863.000
204.771,703.000
222.167,700.000
239.541,751.000
256.894,1055.000
274.225,869.000
291.537,735.000
308.826,718.000
326.093,698.000
343.338,688.000
360.562,677.000
377.765,674.000
394.947,678.000
412.107,704.000
429.246,676.000
446.367,720.000
463.464,684.000
480.540,690.000
497.594,784.000
514.628,2729.000
531.641,867.000
548.633,754.000
565.604,717.000
582.554,715.000
599.486,699.000
616.394,702.000
633.282,702.000
650.149,699.000
666.996,693.000
683.822,686.000
700.627,687.000
717.412,691.000
734.176,695.000
750.923,699.000
767.646,681.000
784.349,686.000
801.032,693.000
817.694,705.000
834.336,703.000
850.958,789.000
867.560,713.000
884.143,715.000
900.705,709.000
917.246,704.000
933.767,719.000
950.269,718.000
966.750,718.000
983.211,715.000
999.652,726.000
1016.074,718.000
1032.478,716.000
1048.860,722.000
1065.222,716.000
1081.564,731.000
1097.887,732.000
1114.190,736.000
1130.473,728.000
1146.737,712.000
1162.983,726.000
1179.208,745.000
1195.413,784.000
1211.599,753.000
1227.765,756.000
1243.912,741.000
1260.040,757.000
1276.148,751.000
1292.237,740.000
1308.307,757.000
1324.360,775.000
1340.391,762.000
1356.403,770.000
1372.396,771.000
1388.371,779.000
1404.326,773.000
1420.262,779.000
1436.179,778.000
1452.079,798.000
1467.959,814.000
1483.819,795.000
1499.661,792.000
1515.483,810.000
1531.287,803.000
1547.073,798.000
1562.839,799.000
1578.587,816.000
1594.319,830.000
1610.029,852.000
1625.721,822.000
1641.395,816.000
1657.050,846.000
1672.687,838.000
1688.305,858.000
1703.905,844.000
1719.488,863.000
1735.051,855.000
1750.596,875.000
1766.123,846.000
1781.631,857.000
1797.121,873.000
1812.593,848.000
1828.047,870.000
1843.482,898.000
1858.902,892.000
1874.302,887.000
1889.683,907.000
1905.047,907.000
1920.392,895.000
1935.720,915.000
1951.030,915.000
1966.321,918.000
1981.598,914.000
1996.854,918.000
2012.092,939.000
2027.313,916.000
2042.516,911.000
2057.702,931.000
2072.869,937.000
2088.019,931.000
2103.152,943.000
2118.267,964.000
2133.367,938.000
2148.446,987.000
2163.509,968.000
2178.554,984.000
2193.582,985.000
2208.592,974.000
2223.585,992.000
2238.561,993.000
2253.521,1006.000
2268.462,1008.000
2283.386,993.000
2298.293,1021.000
2313.183,1017.000
2328.055,1043.000
2342.911,1022.000
2357.749,1023.000
2372.570,1028.000
2387.376,1025.000
2402.164,1024.000
2416.934,1073.000
2431.687,1063.000
2446.424,1053.000
2461.143,1040.000
2475.846,1085.000
2490.532,1079.000
2505.203,1065.000
2519.856,1085.000
2534.492,1084.000
2549.111,1114.000
2563.713,1092.000
2578.299,1109.000
2592.868,1108.000
2607.420,1095.000
2621.956,1096.000
2636.476,1100.000
2650.981,1115.000
2665.467,1099.000
2679.937,1125.000
2694.391,1130.000
2708.828,1095.000
2723.249,1139.000
2737.654,1125.000
2752.044,1118.000
2766.416,1137.000
2780.772,1150.000
2795.111,1143.000
2809.435,1157.000
2823.742,1137.000
2838.033,1150.000
2852.308,1160.000
2866.567,1191.000
2880.810,1167.000
2895.038,1184.000
2909.249,1174.000
2923.444,1205.000
2937.623,1171.000
2951.786,1179.000
2965.933,1184.000
2980.064,1178.000
2994.180,1196.000
3008.281,1214.000
3022.365,1195.000
3036.433,1175.000
3050.485,1185.000
3064.522,1212.000
3078.543,1234.000
3092.548,1208.000
3106.538,1226.000
3120.512,1248.000
3134.472,1245.000
3148.415,1227.000
3162.342,1246.000
3176.254,1245.000
3190.151,1254.000
3204.032,1274.000
3217.897,1266.000
3231.747,1255.000
3245.584,1278.000
3259.403,1232.000
3273.208,1259.000
3286.996,1285.000
3300.770,1260.000
3314.528,1255.000
3328.271,1293.000
3341.999,1280.000
3355.712,1286.000
3369.410,1309.000
3383.094,1273.000
3396.761,1296.000
3410.414,1263.000
3424.051,1282.000
3437.673,1259.000
3451.281,1293.000
3464.873,1306.000
3478.452,1316.000
3492.015,1335.000
3505.562,1319.000
3519.095,1339.000
3532.613,1343.000
3546.116,1342.000
3559.604,1350.000
3573.078,1310.000
3586.537,1330.000
3599.981,1376.000
3613.412,1373.000
3626.826,1358.000
3640.226,1315.000
3653.612,1355.000
3666.983,1360.000
3680.339,1343.000
3693.681,1351.000
3707.008,1343.000
3720.322,1350.000
3733.620,1376.000
3746.904,1375.000
3760.173,1364.000
3773.428,1419.000
3786.668,1358.000
3799.895,1375.000
3813.106,1391.000
3826.304,1390.000
3839.489,1381.000
3852.657,1412.000
3865.812,1464.000
3878.952,1441.000
3892.079,1431.000
3905.191,1436.000
3918.288,1443.000
3931.372,1424.000
3941.177,1447.000