Folder: Data/Raman/Silica (part 9)

File: 2022_12_08_Qtz_355nm_UnPol_11mW_750mm_1200gv_1090wn_iDus_10s_1accum_50x_Mit_UV_Lens_2.csv
31.856,2253.000
40.428,961.000
48.995,2084.000
57.556,3304.000
66.110,2055.000
74.661,827.000
83.207,685.000
91.748,679.000
100.284,694.000
108.814,688.000
117.339,695.000
125.857,688.000
134.372,707.000
142.882,782.000
151.386,1895.000
159.885,845.000
168.380,780.000
176.866,765.000
185.350,784.000
193.829,810.000
202.303,863.000
210.771,1003.000
219.235,1409.000
227.693,1973.000
236.144,1768.000
244.592,1258.000
253.035,1026.000
261.472,914.000
269.905,864.000
278.333,830.000
286.755,1096.000
295.170,758.000
303.583,727.000
311.990,716.000
320.392,701.000
328.790,700.000
337.182,688.000
345.569,678.000
353.948,693.000
362.325,702.000
370.697,755.000
379.064,962.000
387.426,701.000
395.783,695.000
404.134,698.000
412.479,828.000
420.820,756.000
429.157,717.000
437.489,711.000
445.816,720.000
454.137,758.000
462.452,819.000
470.763,1104.000
479.070,3058.000
487.372,6297.000
495.669,1756.000
503.960,1141.000
512.247,1023.000
520.527,965.000
528.804,1133.000
537.076,869.000
545.343,810.000
553.605,774.000
561.862,757.000
570.114,738.000
578.359,737.000
586.601,738.000
594.839,725.000
603.071,720.000
611.299,733.000
619.522,716.000
627.739,723.000
635.950,723.000
644.158,724.000
652.361,716.000
660.559,702.000
668.752,720.000
676.941,718.000
685.122,705.000
693.301,713.000
701.475,728.000
709.644,764.000
717.808,789.000
725.967,717.000
734.121,721.000
742.269,724.000
750.413,718.000
758.553,716.000
766.688,715.000
774.818,731.000
782.944,724.000
791.064,729.000
799.178,745.000
807.289,762.000
815.395,782.000
823.496,1034.000
831.593,870.000
839.685,772.000
847.772,759.000
855.851,752.000
863.929,762.000
872.001,748.000
880.069,759.000
888.132,745.000
896.191,742.000
904.244,748.000
912.291,751.000
920.335,750.000
928.374,753.000
936.409,765.000
944.439,753.000
952.464,751.000
960.482,750.000
968.497,743.000
976.508,738.000
984.515,734.000
992.516,741.000
1000.513,751.000
1008.505,746.000
1016.490,743.000
1024.473,748.000
1032.451,732.000
1040.424,739.000
1048.393,734.000
1056.357,750.000
1064.316,759.000
1072.268,758.000
1080.218,775.000
1088.163,779.000
1096.104,900.000
1104.040,792.000
1111.971,756.000
1119.896,756.000
1127.818,747.000
1135.735,754.000
1143.648,756.000
1151.556,760.000
1159.459,779.000
1167.358,847.000
1175.250,1054.000
1183.140,829.000
1191.025,777.000
1198.905,779.000
1206.781,788.000
1214.652,786.000
1222.519,771.000
1230.379,780.000
1238.236,802.000
1246.089,821.000
1253.937,808.000
1261.781,782.000
1269.620,768.000
1277.454,790.000
1285.282,805.000
1293.108,787.000
1300.929,773.000
1308.745,790.000
1316.557,772.000
1324.364,783.000
1332.167,788.000
1339.963,786.000
1347.756,781.000
1355.545,779.000
1363.330,780.000
1371.110,775.000
1378.886,781.000
1386.657,791.000
1394.421,779.000
1402.183,778.000
1409.941,791.000
1417.694,787.000
1425.442,784.000
1433.186,805.000
1440.924,804.000
1448.659,790.000
1456.389,776.000
1464.116,803.000
1471.837,812.000
1479.555,795.000
1487.267,804.000
1494.973,798.000
1502.677,813.000
1510.377,791.000
1518.072,812.000
1525.762,814.000
1533.448,818.000
1541.128,826.000
1548.805,809.000
1556.478,820.000
1564.146,817.000
1571.810,833.000
1579.470,826.000
1587.125,830.000
1594.773,853.000
1602.420,850.000
1610.062,844.000
1617.699,845.000
1625.332,830.000
1632.961,855.000
1640.585,842.000
1648.203,838.000
1655.819,839.000
1663.430,853.000
1671.037,847.000
1678.639,853.000
1686.238,862.000
1693.831,856.000
1701.419,849.000
1709.004,844.000
1716.585,870.000
1724.161,855.000
1731.733,850.000
1739.301,845.000
1746.864,861.000
1754.421,864.000
1761.976,857.000
1769.526,868.000
1777.072,847.000
1784.614,850.000
1792.152,823.000
1799.685,852.000
1807.212,866.000
1814.736,849.000
1822.256,868.000
1829.772,846.000
1837.284,855.000
1844.792,887.000
1852.295,880.000
1859.791,866.000
1867.286,884.000
1874.776,891.000
1882.262,879.000
1889.744,895.000
1897.222,888.000
1904.693,883.000
1912.162,889.000
1919.627,901.000
1927.087,896.000
1934.544,898.000
1941.996,908.000
1949.444,895.000
1956.885,901.000
1964.324,906.000
1971.760,902.000
1979.191,920.000
1986.617,903.000
1994.040,895.000
2001.456,905.000
2008.870,910.000
2016.280,906.000
2023.686,925.000
2031.087,923.000
2038.485,917.000
2045.878,923.000
2053.265,924.000
2060.650,909.000
2066.186,909.000

File: 2022_12_08_Qtz_532nm_DePol_12mW_750mm_600gv_977wn_iDus_10s_1accum_50x_Mit_Std_Lens.csv
34.493,666.000
42.233,679.000
49.965,680.000
57.693,668.000
65.412,673.000
73.127,678.000
80.834,671.000
88.536,673.000
96.232,689.000
103.919,684.000
111.603,700.000
119.278,695.000
126.948,842.000
134.613,846.000
142.269,712.000
149.920,741.000
157.564,727.000
165.203,730.000
172.834,744.000
180.461,776.000
188.081,840.000
195.693,1007.000
203.302,1297.000
210.901,1365.000
218.497,1104.000
226.084,925.000
233.667,800.000
241.244,767.000
248.813,751.000
256.378,728.000
263.934,731.000
271.487,700.000
279.031,693.000
286.571,694.000
294.105,691.000
301.630,684.000
309.152,680.000
316.666,676.000
324.175,703.000
331.678,684.000
339.173,686.000
346.665,710.000
354.148,1063.000
361.627,726.000
369.098,690.000
376.564,690.000
384.025,695.000
391.478,777.000
398.927,701.000
406.367,694.000
413.804,695.000
421.233,701.000
428.658,723.000
436.076,738.000
443.487,776.000
450.894,954.000
458.292,2020.000
465.687,3518.000
473.076,1283.000
480.457,939.000
487.834,836.000
495.203,787.000
502.568,763.000
509.925,754.000
517.278,740.000
524.626,743.000
531.965,732.000
539.300,738.000
546.628,719.000
553.952,713.000
561.268,717.000
568.580,731.000
575.886,707.000
583.184,711.000
590.479,721.000
597.765,711.000
605.048,711.000
612.323,702.000
619.594,693.000
626.859,706.000
634.117,719.000
641.371,708.000
648.616,704.000
655.859,694.000
663.095,709.000
670.324,707.000
677.548,718.000
684.765,712.000
691.979,740.000
699.184,707.000
706.386,711.000
713.582,708.000
720.771,700.000
727.955,694.000
735.132,696.000
742.306,706.000
749.471,687.000
756.633,704.000
763.789,707.000
770.938,705.000
778.083,713.000
785.220,706.000
792.354,716.000
799.479,709.000
806.602,717.000
813.718,705.000
820.827,709.000
827.933,705.000
835.031,717.000
842.125,713.000
849.213,708.000
856.294,717.000
863.372,722.000
870.441,712.000
877.508,715.000
884.566,707.000
891.621,710.000
898.671,725.000
905.713,730.000
912.751,721.000
919.782,716.000
926.810,720.000
933.830,712.000
940.846,713.000
947.857,717.000
954.860,711.000
961.860,704.000
968.853,712.000
975.841,713.000
982.825,709.000
989.801,702.000
996.773,703.000
1003.738,708.000
1010.700,708.000
1017.654,705.000
1024.605,703.000
1031.550,698.000
1038.488,695.000
1045.422,707.000
1052.349,697.000
1059.273,711.000
1066.189,727.000
1073.102,770.000
1080.009,738.000
1086.909,702.000
1093.806,713.000
1100.695,703.000
1107.581,695.000
1114.462,700.000
1121.335,703.000
1128.205,696.000
1135.067,701.000
1141.927,717.000
1148.779,721.000
1155.627,767.000
1162.470,714.000
1169.306,702.000
1176.139,694.000
1182.964,712.000
1189.786,702.000
1196.601,711.000
1203.413,709.000
1210.219,711.000
1217.018,705.000
1223.814,712.000
1230.602,714.000
1237.387,716.000
1244.166,709.000
1250.940,710.000
1257.710,716.000
1264.472,723.000
1271.231,708.000
1277.983,705.000
1284.732,713.000
1291.473,724.000
1298.212,702.000
1304.945,714.000
1311.671,715.000
1318.393,706.000
1325.109,702.000
1331.822,714.000
1338.529,715.000
1345.229,709.000
1351.926,706.000
1358.616,717.000
1365.303,714.000
1371.982,709.000
1378.659,705.000
1385.330,700.000
1391.994,711.000
1398.656,705.000
1405.310,704.000
1411.961,712.000
1418.605,711.000
1425.245,706.000
1431.881,703.000
1438.510,698.000
1445.135,701.000
1451.754,703.000
1458.370,707.000
1464.980,695.000
1471.583,694.000
1478.184,700.000
1484.777,689.000
1491.368,703.000
1497.951,688.000
1504.531,702.000
1511.107,699.000
1517.675,693.000
1524.240,690.000
1530.799,701.000
1537.354,698.000
1543.903,699.000
1550.448,701.000
1556.988,706.000
1563.522,708.000
1570.052,708.000
1576.576,701.000
1583.097,714.000
1589.612,710.000
1596.121,720.000
1602.627,707.000
1609.126,714.000
1615.622,712.000
1622.112,713.000
1628.598,716.000
1635.079,707.000
1641.554,708.000
1648.025,720.000
1654.490,718.000
1660.952,717.000
1667.407,717.000
1673.859,703.000
1680.306,710.000
1686.746,716.000
1693.184,705.000
1699.615,712.000
1706.042,703.000
1712.465,717.000
1718.882,705.000
1725.295,715.000
1731.702,712.000
1738.105,710.000
1744.502,716.000
1750.897,707.000
1757.284,705.000
1763.669,701.000
1770.048,704.000
1776.421,707.000
1782.792,703.000
1789.155,706.000
1795.516,707.000
1801.872,707.000
1808.221,709.000
1814.567,720.000
1820.907,715.000
1825.661,710.000

File: 2022_12_08_Qtz_532nm_DePol_12mW_750mm_600gv_977wn_iDus_10s_1accum_50x_Mit_UV_Lens.csv
34.493,657.000
42.233,669.000
49.965,661.000
57.693,662.000
65.412,673.000
73.127,672.000
80.834,668.000
88.536,669.000
96.232,666.000
103.919,675.000
111.603,675.000
119.278,675.000
126.948,754.000
134.613,771.000
142.269,702.000
149.920,703.000
157.564,694.000
165.203,697.000
172.834,719.000
180.461,734.000
188.081,779.000
195.693,914.000
203.302,1055.000
210.901,1143.000
218.497,953.000
226.084,827.000
233.667,767.000
241.244,731.000
248.813,707.000
256.378,708.000
263.934,713.000
271.487,691.000
279.031,679.000
286.571,677.000
294.105,679.000
301.630,672.000
309.152,674.000
316.666,674.000
324.175,678.000
331.678,667.000
339.173,675.000
346.665,686.000
354.148,883.000
361.627,699.000
369.098,676.000
376.564,679.000
384.025,676.000
391.478,740.000
398.927,683.000
406.367,678.000
413.804,686.000
421.233,686.000
428.658,689.000
436.076,717.000
443.487,748.000
450.894,866.000
458.292,1645.000
465.687,2592.000
473.076,1081.000
480.457,867.000
487.834,771.000
495.203,750.000
502.568,721.000
509.925,716.000
517.278,720.000
524.626,706.000
531.965,716.000
539.300,712.000
546.628,705.000
553.952,710.000
561.268,699.000
568.580,689.000
575.886,698.000
583.184,701.000
590.479,694.000
597.765,694.000
605.048,694.000
612.323,695.000
619.594,684.000
626.859,699.000
634.117,702.000
641.371,698.000
648.616,690.000
655.859,691.000
663.095,690.000
670.324,694.000
677.548,689.000
684.765,693.000
691.979,695.000
699.184,686.000
706.386,685.000
713.582,690.000
720.771,682.000
727.955,678.000
735.132,679.000
742.306,680.000
749.471,688.000
756.633,691.000
763.789,685.000
770.938,681.000
778.083,686.000
785.220,688.000
792.354,686.000
799.479,699.000
806.602,705.000
813.718,688.000
820.827,696.000
827.933,695.000
835.031,697.000
842.125,696.000
849.213,699.000
856.294,698.000
863.372,694.000
870.441,703.000
877.508,697.000
884.566,703.000
891.621,697.000
898.671,701.000
905.713,696.000
912.751,704.000
919.782,699.000
926.810,700.000
933.830,707.000
940.846,709.000
947.857,695.000
954.860,703.000
961.860,693.000
968.853,703.000
975.841,691.000
982.825,699.000
989.801,692.000
996.773,688.000
1003.738,689.000
1010.700,696.000
1017.654,687.000
1024.605,685.000
1031.550,702.000
1038.488,690.000
1045.422,688.000
1052.349,691.000
1059.273,707.000
1066.189,696.000
1073.102,728.000
1080.009,713.000
1086.909,693.000
1093.806,688.000
1100.695,680.000
1107.581,683.000
1114.462,676.000
1121.335,686.000
1128.205,683.000
1135.067,683.000
1141.927,693.000
1148.779,710.000
1155.627,727.000
1162.470,703.000
1169.306,690.000
1176.139,704.000
1182.964,685.000
1189.786,696.000
1196.601,698.000
1203.413,691.000
1210.219,686.000
1217.018,710.000
1223.814,705.000
1230.602,700.000
1237.387,697.000
1244.166,695.000
1250.940,698.000
1257.710,700.000
1264.472,680.000
1271.231,690.000
1277.983,699.000
1284.732,694.000
1291.473,696.000
1298.212,700.000
1304.945,695.000
1311.671,708.000
1318.393,691.000
1325.109,686.000
1331.822,701.000
1338.529,692.000
1345.229,696.000
1351.926,695.000
1358.616,684.000
1365.303,695.000
1371.982,686.000
1378.659,681.000
1385.330,686.000
1391.994,701.000
1398.656,684.000
1405.310,688.000
1411.961,691.000
1418.605,681.000
1425.245,693.000
1431.881,687.000
1438.510,691.000
1445.135,689.000
1451.754,693.000
1458.370,690.000
1464.980,684.000
1471.583,686.000
1478.184,683.000
1484.777,681.000
1491.368,685.000
1497.951,679.000
1504.531,684.000
1511.107,697.000
1517.675,685.000
1524.240,679.000
1530.799,690.000
1537.354,697.000
1543.903,681.000
1550.448,681.000
1556.988,698.000
1563.522,691.000
1570.052,685.000
1576.576,688.000
1583.097,691.000
1589.612,701.000
1596.121,690.000
1602.627,690.000
1609.126,701.000
1615.622,693.000
1622.112,703.000
1628.598,709.000
1635.079,699.000
1641.554,696.000
1648.025,695.000
1654.490,687.000
1660.952,703.000
1667.407,704.000
1673.859,689.000
1680.306,686.000
1686.746,706.000
1693.184,695.000
1699.615,696.000
1706.042,703.000
1712.465,688.000
1718.882,694.000
1725.295,694.000
1731.702,703.000
1738.105,698.000
1744.502,696.000
1750.897,703.000
1757.284,697.000
1763.669,706.000
1770.048,698.000
1776.421,690.000
1782.792,694.000
1789.155,692.000
1795.516,692.000
1801.872,693.000
1808.221,687.000
1814.567,696.000
1820.907,685.000
1825.661,688.000

File: 2022_12_08_Qtz_532nm_Pol_12mW_750mm_600gv_977wn_iDus_10s_1accum_50x_Mit_Std_Lens.csv
34.493,690.000
42.233,697.000
49.965,681.000
57.693,682.000
65.412,697.000
73.127,695.000
80.834,671.000
88.536,684.000
96.232,699.000
103.919,701.000
111.603,713.000
119.278,767.000
126.948,1174.000
134.613,1135.000
142.269,767.000
149.920,766.000
157.564,757.000
165.203,746.000
172.834,784.000
180.461,811.000
188.081,929.000
195.693,1205.000
203.302,1588.000
210.901,1704.000
218.497,1324.000
226.084,1027.000
233.667,881.000
241.244,814.000
248.813,777.000
256.378,791.000
263.934,984.000
271.487,768.000
279.031,724.000
286.571,712.000
294.105,712.000
301.630,694.000
309.152,701.000
316.666,700.000
324.175,687.000
331.678,708.000
339.173,696.000
346.665,714.000
354.148,926.000
361.627,726.000
369.098,694.000
376.564,717.000
384.025,711.000
391.478,812.000
398.927,774.000
406.367,739.000
413.804,719.000
421.233,724.000
428.658,734.000
436.076,758.000
443.487,838.000
450.894,1125.000
458.292,2914.000
465.687,4814.000
473.076,1599.000
480.457,1060.000
487.834,933.000
495.203,851.000
502.568,855.000
509.925,937.000
517.278,771.000
524.626,755.000
531.965,741.000
539.300,727.000
546.628,729.000
553.952,721.000
561.268,711.000
568.580,723.000
575.886,708.000
583.184,708.000
590.479,710.000
597.765,712.000
605.048,712.000
612.323,700.000
619.594,705.000
626.859,708.000
634.117,703.000
641.371,708.000
648.616,708.000
655.859,706.000
663.095,708.000
670.324,713.000
677.548,725.000
684.765,735.000
691.979,779.000
699.184,748.000
706.386,721.000
713.582,706.000
720.771,731.000
727.955,712.000
735.132,710.000
742.306,707.000
749.471,709.000
756.633,715.000
763.789,716.000
770.938,712.000
778.083,730.000
785.220,735.000
792.354,744.000
799.479,832.000
806.602,935.000
813.718,763.000
820.827,719.000
827.933,724.000
835.031,724.000
842.125,709.000
849.213,715.000
856.294,705.000
863.372,722.000
870.441,701.000
877.508,704.000
884.566,712.000
891.621,712.000
898.671,725.000
905.713,700.000
912.751,707.000
919.782,709.000
926.810,704.000
933.830,703.000
940.846,696.000
947.857,700.000
954.860,706.000
961.860,701.000
968.853,706.000
975.841,711.000
982.825,702.000
989.801,705.000
996.773,705.000
1003.738,691.000
1010.700,695.000
1017.654,695.000
1024.605,710.000
1031.550,702.000
1038.488,714.000
1045.422,707.000
1052.349,717.000
1059.273,720.000
1066.189,717.000
1073.102,764.000
1080.009,740.000
1086.909,720.000
1093.806,721.000
1100.695,711.000
1107.581,713.000
1114.462,711.000
1121.335,715.000
1128.205,715.000
1135.067,721.000
1141.927,724.000
1148.779,799.000
1155.627,805.000
1162.470,732.000
1169.306,712.000
1176.139,710.000
1182.964,697.000
1189.786,699.000
1196.601,699.000
1203.413,711.000
1210.219,706.000
1217.018,706.000
1223.814,712.000
1230.602,708.000
1237.387,702.000
1244.166,719.000
1250.940,704.000
1257.710,696.000
1264.472,690.000
1271.231,698.000
1277.983,699.000
1284.732,682.000
1291.473,698.000
1298.212,689.000
1304.945,688.000
1311.671,686.000
1318.393,678.000
1325.109,703.000
1331.822,698.000
1338.529,692.000
1345.229,703.000
1351.926,693.000
1358.616,695.000
1365.303,702.000
1371.982,698.000
1378.659,704.000
1385.330,690.000
1391.994,706.000
1398.656,710.000
1405.310,696.000
1411.961,704.000
1418.605,709.000
1425.245,708.000
1431.881,702.000
1438.510,712.000
1445.135,711.000
1451.754,700.000
1458.370,705.000
1464.980,711.000
1471.583,710.000
1478.184,707.000
1484.777,713.000
1491.368,710.000
1497.951,723.000
1504.531,711.000
1511.107,710.000
1517.675,714.000
1524.240,719.000
1530.799,705.000
1537.354,699.000
1543.903,705.000
1550.448,709.000
1556.988,704.000
1563.522,704.000
1570.052,711.000
1576.576,715.000
1583.097,708.000
1589.612,716.000
1596.121,713.000
1602.627,725.000
1609.126,701.000
1615.622,687.000
1622.112,704.000
1628.598,692.000
1635.079,696.000
1641.554,705.000
1648.025,706.000
1654.490,695.000
1660.952,687.000
1667.407,704.000
1673.859,697.000
1680.306,692.000
1686.746,698.000
1693.184,692.000
1699.615,689.000
1706.042,704.000
1712.465,698.000
1718.882,693.000
1725.295,686.000
1731.702,686.000
1738.105,696.000
1744.502,702.000
1750.897,705.000
1757.284,692.000
1763.669,692.000
1770.048,705.000
1776.421,702.000
1782.792,704.000
1789.155,711.000
1795.516,696.000
1801.872,701.000
1808.221,701.000
1814.567,695.000
1820.907,726.000
1825.661,715.000

File: 2022_12_08_Qtz_532nm_Pol_12mW_750mm_600gv_977wn_iDus_10s_1accum_50x_Mit_UV_Lens.csv
34.493,662.000
42.233,679.000
49.965,667.000
57.693,666.000
65.412,668.000
73.127,674.000
80.834,665.000
88.536,672.000
96.232,664.000
103.919,674.000
111.603,677.000
119.278,695.000
126.948,890.000
134.613,909.000
142.269,729.000
149.920,730.000
157.564,711.000
165.203,706.000
172.834,711.000
180.461,743.000
188.081,823.000
195.693,940.000
203.302,1182.000
210.901,1241.000
218.497,1002.000
226.084,858.000
233.667,775.000
241.244,736.000
248.813,731.000
256.378,722.000
263.934,846.000
271.487,722.000
279.031,683.000
286.571,674.000
294.105,668.000
301.630,672.000
309.152,679.000
316.666,671.000
324.175,680.000
331.678,676.000
339.173,692.000
346.665,683.000
354.148,837.000
361.627,692.000
369.098,684.000
376.564,681.000
384.025,684.000
391.478,750.000
398.927,725.000
406.367,694.000
413.804,696.000
421.233,703.000
428.658,700.000
436.076,716.000
443.487,760.000
450.894,915.000
458.292,1877.000
465.687,2996.000
473.076,1163.000
480.457,879.000
487.834,805.000
495.203,768.000
502.568,760.000
509.925,794.000
517.278,717.000
524.626,705.000
531.965,715.000
539.300,699.000
546.628,690.000
553.952,684.000
561.268,692.000
568.580,681.000
575.886,701.000
583.184,684.000
590.479,693.000
597.765,683.000
605.048,686.000
612.323,688.000
619.594,681.000
626.859,684.000
634.117,683.000
641.371,686.000
648.616,681.000
655.859,693.000
663.095,678.000
670.324,676.000
677.548,693.000
684.765,701.000
691.979,727.000
699.184,699.000
706.386,696.000
713.582,704.000
720.771,698.000
727.955,696.000
735.132,699.000
742.306,691.000
749.471,690.000
756.633,690.000
763.789,694.000
770.938,688.000
778.083,695.000
785.220,694.000
792.354,704.000
799.479,757.000
806.602,818.000
813.718,717.000
820.827,697.000
827.933,695.000
835.031,691.000
842.125,693.000
849.213,684.000
856.294,698.000
863.372,678.000
870.441,686.000
877.508,677.000
884.566,680.000
891.621,694.000
898.671,675.000
905.713,689.000
912.751,691.000
919.782,681.000
926.810,687.000
933.830,693.000
940.846,679.000
947.857,684.000
954.860,671.000
961.860,673.000
968.853,688.000
975.841,675.000
982.825,686.000
989.801,678.000
996.773,680.000
1003.738,686.000
1010.700,679.000
1017.654,683.000
1024.605,683.000
1031.550,688.000
1038.488,693.000
1045.422,693.000
1052.349,689.000
1059.273,700.000
1066.189,694.000
1073.102,703.000
1080.009,707.000
1086.909,692.000
1093.806,707.000
1100.695,693.000
1107.581,693.000
1114.462,686.000
1121.335,692.000
1128.205,693.000
1135.067,699.000
1141.927,700.000
1148.779,732.000
1155.627,761.000
1162.470,699.000
1169.306,695.000
1176.139,687.000
1182.964,688.000
1189.786,686.000
1196.601,688.000
1203.413,690.000
1210.219,690.000
1217.018,693.000
1223.814,684.000
1230.602,687.000
1237.387,677.000
1244.166,687.000
1250.940,687.000
1257.710,689.000
1264.472,682.000
1271.231,692.000
1277.983,677.000
1284.732,673.000
1291.473,677.000
1298.212,675.000
1304.945,675.000
1311.671,678.000
1318.393,686.000
1325.109,688.000
1331.822,681.000
1338.529,680.000
1345.229,678.000
1351.926,674.000
1358.616,679.000
1365.303,683.000
1371.982,679.000
1378.659,684.000
1385.330,681.000
1391.994,678.000
1398.656,679.000
1405.310,691.000
1411.961,691.000
1418.605,685.000
1425.245,684.000
1431.881,698.000
1438.510,689.000
1445.135,680.000
1451.754,688.000
1458.370,680.000
1464.980,696.000
1471.583,679.000
1478.184,687.000
1484.777,680.000
1491.368,696.000
1497.951,693.000
1504.531,691.000
1511.107,679.000
1517.675,681.000
1524.240,691.000
1530.799,686.000
1537.354,694.000
1543.903,689.000
1550.448,689.000
1556.988,689.000
1563.522,698.000
1570.052,685.000
1576.576,680.000
1583.097,679.000
1589.612,698.000
1596.121,682.000
1602.627,693.000
1609.126,696.000
1615.622,676.000
1622.112,686.000
1628.598,687.000
1635.079,678.000
1641.554,687.000
1648.025,681.000
1654.490,681.000
1660.952,686.000
1667.407,677.000
1673.859,675.000
1680.306,691.000
1686.746,689.000
1693.184,681.000
1699.615,677.000
1706.042,683.000
1712.465,675.000
1718.882,685.000
1725.295,679.000
1731.702,686.000
1738.105,679.000
1744.502,685.000
1750.897,685.000
1757.284,683.000
1763.669,677.000
1770.048,696.000
1776.421,682.000
1782.792,690.000
1789.155,675.000
1795.516,685.000
1801.872,678.000
1808.221,689.000
1814.567,676.000
1820.907,701.000
1825.661,696.000