Folder: Data/Raman/Silica (part 90)

File: 2025_09_09_8pct_Hydrated_SiO2_Glass_50X_532nm_74mW_Andor750_600gv_1030wn_6accum_30s_UnPol_Loc1.csv
23.130,13373.000,13492.000,13369.000,13363.000,13378.000,13553.000
36.684,14155.000,14181.000,14154.000,14203.000,14202.000,14145.000
50.221,16507.000,16775.000,16683.000,16683.000,16550.000,16647.000
63.736,17286.000,17081.000,17274.000,17269.000,17248.000,17302.000
77.233,17022.000,17103.000,16927.000,16998.000,17018.000,17044.000
90.708,15849.000,15884.000,15840.000,15760.000,15783.000,15865.000
104.167,14609.000,14614.000,14626.000,14762.000,14683.000,14578.000
117.603,13633.000,13667.000,13476.000,13611.000,13563.000,13592.000
131.024,12686.000,12674.000,12752.000,12637.000,12627.000,12704.000
144.422,12051.000,11909.000,11907.000,11852.000,11956.000,11800.000
157.804,11150.000,11306.000,11121.000,11053.000,11059.000,11193.000
171.164,10469.000,10445.000,10364.000,10431.000,10475.000,10563.000
184.504,9874.000,9972.000,9963.000,9931.000,9889.000,10010.000
197.829,9707.000,9653.000,9667.000,9616.000,9618.000,9603.000
211.132,9565.000,9466.000,9567.000,9522.000,9538.000,9555.000
224.417,9593.000,9459.000,9551.000,9572.000,9561.000,9563.000
237.681,9446.000,9410.000,9507.000,9459.000,9444.000,9341.000
250.929,9374.000,9304.000,9187.000,9303.000,9415.000,9440.000
264.156,9425.000,9446.000,9443.000,9403.000,9350.000,9374.000
277.367,9594.000,9627.000,9634.000,9611.000,9573.000,9569.000
290.556,9891.000,9983.000,9924.000,9772.000,9854.000,9789.000
303.728,10426.000,10220.000,10218.000,10270.000,10122.000,10340.000
316.880,10610.000,10592.000,10527.000,10701.000,10381.000,10519.000
330.014,10679.000,10745.000,10691.000,10660.000,10611.000,10613.000
343.130,11274.000,11299.000,11339.000,11203.000,11342.000,11216.000
356.226,11845.000,11802.000,11698.000,11762.000,11647.000,11656.000
369.305,12609.000,12435.000,12506.000,12364.000,12389.000,12478.000
382.363,13089.000,12880.000,12995.000,12860.000,13066.000,12809.000
395.405,13353.000,13370.000,13252.000,13301.000,13384.000,13288.000
408.428,13752.000,13768.000,13752.000,13700.000,13886.000,13684.000
421.432,14201.000,14220.000,14196.000,14182.000,14160.000,14200.000
434.417,14886.000,14833.000,14979.000,14851.000,14907.000,14617.000
447.386,15726.000,15643.000,15615.000,15682.000,15647.000,15527.000
460.335,16698.000,16725.000,16755.000,16675.000,16503.000,16626.000
473.265,17789.000,17866.000,17803.000,17777.000,17866.000,17727.000
486.179,18387.000,18438.000,18386.000,18410.000,18394.000,18318.000
499.072,15831.000,15833.000,15814.000,15928.000,15920.000,16004.000
511.950,11396.000,11335.000,11242.000,11229.000,11332.000,11354.000
524.807,8431.000,8386.000,8399.000,8384.000,8325.000,8342.000
537.649,7068.000,7072.000,7031.000,6943.000,7103.000,7013.000
550.469,6227.000,6127.000,6290.000,6192.000,6247.000,6119.000
563.275,5574.000,5602.000,5533.000,5613.000,5588.000,5625.000
576.060,5119.000,5006.000,5092.000,5017.000,4994.000,5016.000
588.829,4640.000,4537.000,4556.000,4617.000,4561.000,4524.000
601.579,4342.000,4315.000,4269.000,4244.000,4277.000,4283.000
614.310,3993.000,3920.000,3903.000,3870.000,3913.000,3955.000
627.026,3645.000,3563.000,3640.000,3672.000,3588.000,3584.000
639.723,3442.000,3360.000,3366.000,3348.000,3406.000,3355.000
652.403,3281.000,3231.000,3254.000,3248.000,3221.000,3260.000
665.064,3191.000,3179.000,3179.000,3166.000,3176.000,3134.000
677.709,3117.000,3079.000,3071.000,3014.000,3035.000,3036.000
690.334,3078.000,2990.000,2965.000,2997.000,2957.000,3020.000
702.944,2993.000,2970.000,2927.000,2952.000,2903.000,2941.000
715.535,2936.000,2930.000,2937.000,2876.000,2918.000,2871.000
728.106,2872.000,2835.000,2861.000,2813.000,2850.000,2839.000
740.664,2847.000,2877.000,2897.000,2861.000,2844.000,2820.000
753.202,2886.000,2913.000,2808.000,2829.000,2861.000,2815.000
765.725,3049.000,3065.000,3007.000,2941.000,3005.000,2998.000
778.228,3871.000,3870.000,3868.000,3856.000,3777.000,3804.000
790.716,4260.000,4225.000,4236.000,4241.000,4146.000,4168.000
803.184,4237.000,4125.000,4165.000,4144.000,4035.000,4134.000
815.637,3949.000,3873.000,3917.000,3863.000,3863.000,3885.000
828.071,3520.000,3470.000,3526.000,3474.000,3534.000,3428.000
840.489,2977.000,2935.000,2915.000,2954.000,2923.000,2919.000
852.890,2640.000,2601.000,2514.000,2567.000,2545.000,2490.000
865.272,2552.000,2542.000,2482.000,2513.000,2428.000,2468.000
877.640,2595.000,2572.000,2561.000,2536.000,2488.000,2510.000
889.988,2758.000,2722.000,2725.000,2734.000,2727.000,2671.000
902.321,3018.000,2980.000,2990.000,2875.000,2959.000,2899.000
914.635,3201.000,3208.000,3133.000,3108.000,3144.000,3071.000
926.934,3559.000,3454.000,3456.000,3431.000,3410.000,3393.000
939.215,4036.000,4043.000,3949.000,3934.000,3881.000,3918.000
951.481,4589.000,4680.000,4604.000,4554.000,4645.000,4575.000
963.727,5343.000,5333.000,5254.000,5205.000,5199.000,5150.000
975.959,5348.000,5334.000,5373.000,5265.000,5283.000,5207.000
988.172,4372.000,4452.000,4415.000,4439.000,4399.000,4322.000
1000.369,3517.000,3486.000,3427.000,3472.000,3417.000,3379.000
1012.551,2985.000,2978.000,2967.000,2926.000,2896.000,2963.000
1024.714,2845.000,2809.000,2815.000,2756.000,2764.000,2740.000
1036.863,2803.000,2804.000,2762.000,2810.000,2792.000,2756.000
1048.994,2898.000,2874.000,2845.000,2748.000,2840.000,2798.000
1061.109,2862.000,2829.000,2819.000,2755.000,2775.000,2772.000
1073.206,2746.000,2705.000,2716.000,2645.000,2687.000,2681.000
1085.287,2548.000,2546.000,2467.000,2515.000,2469.000,2471.000
1097.351,2386.000,2351.000,2303.000,2295.000,2301.000,2268.000
1109.401,2291.000,2235.000,2169.000,2181.000,2162.000,2179.000
1121.432,2259.000,2256.000,2170.000,2187.000,2150.000,2150.000
1133.447,2247.000,2270.000,2217.000,2205.000,2190.000,2160.000
1145.447,2298.000,2238.000,2239.000,2229.000,2217.000,2195.000
1157.430,2337.000,2282.000,2249.000,2268.000,2261.000,2222.000
1169.397,2299.000,2301.000,2262.000,2285.000,2235.000,2205.000
1181.347,2318.000,2221.000,2235.000,2199.000,2178.000,2194.000
1193.282,2251.000,2270.000,2208.000,2179.000,2181.000,2184.000
1205.200,2195.000,2159.000,2178.000,2107.000,2105.000,2085.000
1217.103,2105.000,2066.000,2056.000,2022.000,2033.000,2039.000
1228.988,2037.000,1982.000,1944.000,1902.000,1905.000,1886.000
1240.858,1902.000,1831.000,1817.000,1818.000,1830.000,1750.000
1252.712,1842.000,1810.000,1791.000,1709.000,1733.000,1703.000
1264.549,1795.000,1748.000,1808.000,1705.000,1695.000,1689.000
1276.372,1816.000,1743.000,1701.000,1678.000,1698.000,1644.000
1288.177,1660.000,1681.000,1627.000,1620.000,1603.000,1610.000
1299.969,1680.000,1661.000,1617.000,1639.000,1582.000,1555.000
1311.742,1685.000,1630.000,1603.000,1580.000,1564.000,1567.000
1323.501,1660.000,1656.000,1580.000,1578.000,1567.000,1539.000
1335.243,1661.000,1615.000,1574.000,1602.000,1555.000,1589.000
1346.970,1672.000,1579.000,1605.000,1598.000,1579.000,1554.000
1358.680,1682.000,1695.000,1595.000,1595.000,1598.000,1575.000
1370.376,1794.000,1759.000,1703.000,1668.000,1689.000,1681.000
1382.057,1783.000,1777.000,1738.000,1716.000,1705.000,1680.000
1393.719,1702.000,1644.000,1660.000,1638.000,1586.000,1599.000
1405.369,1683.000,1649.000,1588.000,1642.000,1563.000,1607.000
1417.001,1670.000,1599.000,1640.000,1588.000,1596.000,1539.000
1428.619,1699.000,1675.000,1577.000,1594.000,1577.000,1570.000
1440.220,1666.000,1652.000,1630.000,1623.000,1574.000,1588.000
1451.807,1669.000,1647.000,1627.000,1590.000,1614.000,1560.000
1463.377,1704.000,1648.000,1597.000,1627.000,1579.000,1572.000
1474.934,1717.000,1687.000,1621.000,1632.000,1616.000,1607.000
1486.473,1740.000,1664.000,1666.000,1631.000,1603.000,1601.000
1497.997,1753.000,1725.000,1684.000,1613.000,1637.000,1578.000
1509.507,1751.000,1680.000,1631.000,1662.000,1643.000,1645.000
1521.001,1780.000,1759.000,1692.000,1654.000,1655.000,1632.000
1532.480,1753.000,1731.000,1700.000,1691.000,1671.000,1682.000
1543.943,1826.000,1750.000,1713.000,1743.000,1682.000,1680.000
1555.392,1848.000,1822.000,1747.000,1740.000,1702.000,1669.000
1566.824,1845.000,1798.000,1781.000,1780.000,1773.000,1738.000
1578.243,1880.000,1783.000,1806.000,1775.000,1800.000,1749.000
1589.645,1938.000,1898.000,1868.000,1860.000,1830.000,1787.000
1601.034,2042.000,1968.000,1925.000,1897.000,1911.000,1861.000
1612.405,2033.000,2030.000,1968.000,1918.000,1942.000,1935.000
1623.763,2001.000,1981.000,1939.000,1919.000,1910.000,1868.000
1635.106,1939.000,1926.000,1890.000,1862.000,1859.000,1834.000
1646.432,1898.000,1814.000,1873.000,1779.000,1771.000,1774.000
1657.747,1831.000,1760.000,1752.000,1746.000,1760.000,1698.000
1669.044,1839.000,1723.000,1723.000,1706.000,1675.000,1688.000
1680.328,1759.000,1742.000,1731.000,1676.000,1667.000,1655.000
1691.594,1757.000,1703.000,1720.000,1670.000,1660.000,1613.000
1702.848,1788.000,1705.000,1680.000,1635.000,1658.000,1579.000
1714.086,1716.000,1704.000,1644.000,1648.000,1638.000,1599.000
1725.311,1731.000,1680.000,1644.000,1653.000,1605.000,1598.000
1736.519,1723.000,1675.000,1667.000,1625.000,1628.000,1570.000
1747.712,1706.000,1667.000,1651.000,1669.000,1638.000,1582.000
1758.893,1736.000,1666.000,1618.000,1618.000,1593.000,1592.000
1770.057,1736.000,1679.000,1660.000,1650.000,1594.000,1566.000
1781.209,1746.000,1672.000,1639.000,1622.000,1623.000,1606.000
1792.343,1704.000,1690.000,1677.000,1647.000,1637.000,1601.000
1803.465,1739.000,1689.000,1664.000,1629.000,1601.000,1627.000
1814.571,1739.000,1684.000,1688.000,1663.000,1621.000,1613.000
1816.157,1736.000,1685.000,1628.000,1638.000,1633.000,1612.000

File: 2025_09_09_8pct_Hydrated_SiO2_Glass_50X_532nm_74mW_Andor750_600gv_3400wn_3accum_30s_Pol_Pos2.csv
2654.492,856.000,849.000,831.000
2660.180,848.000,862.000,851.000
2665.866,859.000,858.000,860.000
2671.545,852.000,862.000,868.000
2677.221,845.000,866.000,857.000
2682.894,864.000,858.000,847.000
2688.562,835.000,876.000,864.000
2694.227,857.000,861.000,861.000
2699.886,885.000,861.000,867.000
2705.543,855.000,857.000,861.000
2711.196,859.000,860.000,860.000
2716.844,867.000,867.000,869.000
2722.488,868.000,860.000,859.000
2728.129,883.000,879.000,856.000
2733.765,887.000,880.000,868.000
2739.399,869.000,855.000,875.000
2745.027,867.000,882.000,873.000
2750.650,867.000,868.000,895.000
2756.272,878.000,879.000,866.000
2761.889,875.000,878.000,869.000
2767.503,902.000,882.000,871.000
2773.111,892.000,886.000,887.000
2778.716,872.000,885.000,891.000
2784.316,911.000,892.000,885.000
2789.915,911.000,896.000,895.000
2795.507,919.000,891.000,895.000
2801.098,902.000,909.000,902.000
2806.682,915.000,899.000,910.000
2812.264,901.000,918.000,927.000
2817.842,896.000,916.000,895.000
2823.416,919.000,915.000,903.000
2828.986,936.000,919.000,933.000
2834.551,913.000,934.000,918.000
2840.113,924.000,927.000,921.000
2845.672,929.000,927.000,918.000
2851.227,948.000,956.000,943.000
2856.776,948.000,950.000,928.000
2862.323,964.000,982.000,941.000
2867.867,979.000,978.000,983.000
2873.406,960.000,971.000,958.000
2878.941,979.000,974.000,976.000
2884.471,976.000,969.000,963.000
2889.998,993.000,981.000,994.000
2895.522,989.000,970.000,1009.000
2901.043,1014.000,992.000,1027.000
2906.558,1046.000,1020.000,1027.000
2912.069,1128.000,1120.000,1117.000
2917.578,1255.000,1232.000,1241.000
2923.083,1295.000,1305.000,1291.000
2928.584,1291.000,1289.000,1288.000
2934.081,1210.000,1204.000,1211.000
2939.573,1136.000,1150.000,1143.000
2945.063,1122.000,1091.000,1110.000
2950.548,1102.000,1084.000,1119.000
2956.030,1093.000,1064.000,1083.000
2961.509,1095.000,1083.000,1093.000
2966.981,1082.000,1082.000,1106.000
2972.452,1103.000,1115.000,1097.000
2977.919,1107.000,1117.000,1104.000
2983.382,1129.000,1094.000,1119.000
2988.840,1152.000,1123.000,1133.000
2994.295,1137.000,1142.000,1142.000
2999.746,1160.000,1146.000,1131.000
3005.195,1157.000,1175.000,1163.000
3010.638,1173.000,1138.000,1155.000
3016.077,1179.000,1177.000,1179.000
3021.514,1173.000,1190.000,1177.000
3026.947,1206.000,1188.000,1157.000
3032.377,1226.000,1179.000,1197.000
3037.801,1195.000,1208.000,1224.000
3043.222,1234.000,1225.000,1217.000
3048.640,1230.000,1235.000,1212.000
3054.054,1216.000,1237.000,1252.000
3059.465,1278.000,1249.000,1251.000
3064.872,1283.000,1271.000,1261.000
3070.273,1306.000,1279.000,1273.000
3075.673,1303.000,1286.000,1280.000
3081.068,1320.000,1307.000,1312.000
3086.461,1299.000,1316.000,1319.000
3091.847,1306.000,1311.000,1314.000
3097.231,1350.000,1344.000,1339.000
3102.613,1363.000,1359.000,1371.000
3107.991,1396.000,1395.000,1387.000
3113.363,1365.000,1366.000,1370.000
3118.732,1359.000,1356.000,1380.000
3124.098,1394.000,1382.000,1400.000
3129.461,1388.000,1384.000,1381.000
3134.820,1380.000,1416.000,1409.000
3140.175,1433.000,1400.000,1402.000
3145.525,1427.000,1423.000,1403.000
3150.873,1436.000,1459.000,1452.000
3156.217,1402.000,1431.000,1442.000
3161.558,1431.000,1461.000,1446.000
3166.894,1471.000,6518.000,1477.000
3172.226,1475.000,1484.000,1475.000
3177.556,1508.000,1525.000,1476.000
3182.882,1494.000,1492.000,1499.000
3188.204,1514.000,1494.000,1529.000
3193.522,1536.000,1553.000,1552.000
3198.836,1555.000,1539.000,1602.000
3204.148,1569.000,1573.000,1549.000
3209.456,1592.000,1562.000,1539.000
3214.761,1557.000,1543.000,1569.000
3220.060,1597.000,1595.000,1571.000
3225.357,1617.000,1619.000,1599.000
3230.650,1589.000,1604.000,1576.000
3235.940,1626.000,1590.000,1590.000
3241.227,1615.000,1640.000,1617.000
3246.507,1589.000,1617.000,1632.000
3251.787,1657.000,1614.000,1602.000
3257.063,1632.000,1650.000,1668.000
3262.334,1653.000,1662.000,1630.000
3267.603,1627.000,1688.000,1671.000
3272.866,1675.000,1683.000,1648.000
3278.127,1700.000,1673.000,1707.000
3283.385,1691.000,1673.000,1701.000
3288.639,1705.000,1682.000,1698.000
3293.890,1721.000,1716.000,1685.000
3299.135,1691.000,1691.000,1705.000
3304.379,1736.000,1726.000,1756.000
3309.618,1741.000,1737.000,1716.000
3314.855,1772.000,1713.000,1720.000
3320.087,1765.000,1755.000,1752.000
3325.316,1780.000,1766.000,1757.000
3330.542,1781.000,1777.000,1775.000
3335.763,1764.000,1875.000,1809.000
3340.982,1799.000,1800.000,1830.000
3346.196,1849.000,1826.000,1842.000
3351.408,1859.000,1895.000,1866.000
3356.615,1853.000,1861.000,1862.000
3361.820,1842.000,1818.000,1857.000
3367.022,1878.000,1893.000,1877.000
3372.217,1856.000,1905.000,1894.000
3377.412,1920.000,1856.000,1911.000
3382.603,1919.000,1919.000,1902.000
3387.789,1873.000,1929.000,1915.000
3392.973,1930.000,1991.000,1922.000
3398.152,1946.000,1887.000,1940.000
3403.328,1951.000,1942.000,1975.000
3408.502,1931.000,1983.000,2000.000
3413.672,1965.000,1992.000,1963.000
3418.838,1952.000,2037.000,1984.000
3423.999,2016.000,1992.000,1944.000
3429.158,1991.000,1961.000,1994.000
3434.314,1975.000,1993.000,2004.000
3439.467,2036.000,2063.000,2019.000
3444.614,2014.000,2062.000,2076.000
3449.759,2085.000,2032.000,2012.000
3454.901,2057.000,2035.000,2111.000
3460.040,2041.000,2032.000,2036.000
3465.175,2075.000,2066.000,2043.000
3470.305,2069.000,2043.000,2039.000
3475.433,2072.000,2108.000,2074.000
3480.559,2026.000,2088.000,2066.000
3485.680,2055.000,2062.000,2025.000
3490.798,2105.000,2125.000,2154.000
3495.911,2094.000,2100.000,2106.000
3501.023,2131.000,2118.000,2119.000
3506.130,2094.000,2127.000,2106.000
3511.235,2125.000,2093.000,2097.000
3516.336,2124.000,2122.000,2126.000
3521.431,2099.000,2185.000,2166.000
3526.526,2166.000,2119.000,2189.000
3531.617,2136.000,2136.000,2152.000
3536.704,2168.000,2223.000,2230.000
3541.787,2158.000,2202.000,2226.000
3546.867,2155.000,2196.000,2220.000
3551.944,2204.000,2221.000,2246.000
3557.017,2256.000,2261.000,2290.000
3562.088,2319.000,2291.000,2279.000
3567.154,2387.000,2326.000,2383.000
3572.218,2453.000,2372.000,2434.000
3577.278,2523.000,2477.000,2479.000
3582.335,2542.000,2557.000,2598.000
3587.389,2606.000,2576.000,2595.000
3592.437,2692.000,2620.000,2653.000
3597.484,2714.000,2716.000,2739.000
3602.528,2626.000,2641.000,2655.000
3607.568,2494.000,2492.000,2485.000
3612.604,2285.000,2332.000,2373.000
3617.637,2185.000,2223.000,2231.000
3622.667,2165.000,2208.000,2215.000
3627.694,2113.000,2150.000,2121.000
3632.718,2137.000,2143.000,2150.000
3637.736,2183.000,2135.000,2158.000
3642.753,2096.000,2126.000,2120.000
3647.767,2123.000,2185.000,2126.000
3652.777,2117.000,2102.000,2079.000
3657.784,2070.000,2056.000,2040.000
3662.786,1982.000,2034.000,2007.000
3667.786,1904.000,1900.000,1908.000
3672.783,1794.000,1805.000,1810.000
3677.777,1667.000,1678.000,1649.000
3682.767,1502.000,1529.000,1523.000
3687.753,1396.000,1401.000,1380.000
3692.737,1279.000,1299.000,1298.000
3697.717,1188.000,1185.000,1174.000
3702.695,1140.000,1113.000,1131.000
3707.668,1055.000,1063.000,1068.000
3712.638,991.000,1007.000,1016.000
3717.605,970.000,1011.000,979.000
3722.569,975.000,964.000,966.000
3727.531,951.000,938.000,970.000
3732.487,938.000,923.000,942.000
3737.441,943.000,967.000,903.000
3742.392,916.000,913.000,915.000
3747.340,909.000,909.000,916.000
3752.284,914.000,905.000,908.000
3757.226,885.000,881.000,884.000
3762.162,891.000,899.000,860.000
3767.097,871.000,903.000,884.000
3772.029,881.000,888.000,914.000
3776.957,880.000,872.000,890.000
3781.882,869.000,874.000,884.000
3786.803,880.000,866.000,889.000
3791.722,872.000,861.000,869.000
3796.637,873.000,872.000,861.000
3801.550,883.000,858.000,871.000
3806.457,875.000,867.000,859.000
3811.363,874.000,884.000,878.000
3816.266,878.000,863.000,858.000
3821.165,858.000,891.000,877.000
3826.061,863.000,856.000,868.000
3830.953,859.000,873.000,867.000
3835.842,866.000,864.000,856.000
3840.730,868.000,861.000,874.000
3845.613,874.000,865.000,863.000
3850.493,853.000,846.000,871.000
3855.369,862.000,857.000,852.000
3860.243,850.000,844.000,867.000
3865.113,864.000,852.000,866.000
3869.981,850.000,852.000,863.000
3874.844,880.000,868.000,857.000
3879.705,852.000,854.000,861.000
3884.563,857.000,841.000,851.000
3889.418,853.000,863.000,847.000
3894.269,861.000,869.000,867.000
3899.117,861.000,850.000,864.000
3903.962,854.000,864.000,871.000
3908.805,857.000,846.000,875.000
3913.643,867.000,855.000,864.000
3918.479,860.000,860.000,860.000
3923.311,858.000,853.000,861.000
3928.140,1674.000,858.000,860.000
3932.967,845.000,846.000,851.000
3937.791,847.000,853.000,867.000
3942.610,860.000,858.000,857.000
3947.427,853.000,853.000,855.000
3952.240,875.000,869.000,860.000
3957.052,851.000,839.000,857.000
3961.859,859.000,854.000,859.000
3966.662,870.000,869.000,843.000
3971.464,864.000,879.000,858.000
3976.263,861.000,852.000,864.000
3981.058,856.000,892.000,861.000
3985.849,896.000,875.000,877.000
3989.441,887.000,892.000,874.000