Folder: Data/Raman/Silica (part 69)

File: 2025_08_23_AbNTS_MA10_S21_10GPa_Glass_50X_532nm_6mW_Andor750_600gv_1030wn_3accum_30s_UnPol_Pos3.csv
23.130,1328.000,1268.000,1269.000
30.879,1237.000,1218.000,1194.000
38.619,1260.000,1216.000,1239.000
46.355,1314.000,1273.000,1253.000
54.083,1291.000,1277.000,1271.000
61.807,1318.000,1291.000,1239.000
69.523,1400.000,1356.000,1339.000
77.233,1477.000,1456.000,1412.000
84.936,1459.000,1411.000,1387.000
92.632,1405.000,1361.000,1351.000
100.323,1450.000,1419.000,1410.000
108.007,2051.000,2035.000,1983.000
115.685,1617.000,1599.000,1603.000
123.359,1375.000,1366.000,1305.000
131.024,1318.000,1301.000,1250.000
138.683,1289.000,1243.000,1208.000
146.335,1368.000,1330.000,1307.000
153.982,1296.000,1300.000,1267.000
161.621,1461.000,1396.000,1405.000
169.256,1359.000,1333.000,1312.000
176.883,1405.000,1364.000,1351.000
184.504,1432.000,1390.000,1384.000
192.122,1470.000,1446.000,1434.000
199.731,1378.000,1297.000,1264.000
207.333,1294.000,1293.000,1261.000
214.929,1343.000,1275.000,1234.000
222.519,1347.000,1281.000,1234.000
230.104,1348.000,1298.000,1287.000
237.681,1345.000,1288.000,1278.000
245.253,1318.000,1277.000,1279.000
252.819,1257.000,1246.000,1172.000
260.380,1255.000,1214.000,1193.000
267.933,1274.000,1226.000,1174.000
275.480,1240.000,1219.000,1175.000
283.021,1271.000,1215.000,1182.000
290.556,1292.000,1203.000,1188.000
298.084,1274.000,1214.000,1174.000
305.607,1280.000,1211.000,1176.000
313.123,1277.000,1214.000,1204.000
320.635,1298.000,1221.000,1163.000
328.139,1273.000,1230.000,1188.000
335.638,1259.000,1222.000,1192.000
343.130,1301.000,1222.000,1192.000
350.616,1279.000,1254.000,1213.000
358.095,1315.000,1277.000,1230.000
365.569,1310.000,1239.000,1238.000
373.037,1345.000,1260.000,1259.000
380.498,1311.000,1279.000,1245.000
387.956,1323.000,1262.000,1244.000
395.405,1323.000,1287.000,1226.000
402.849,1334.000,1280.000,1245.000
410.287,1336.000,1276.000,1222.000
417.719,1332.000,1291.000,1242.000
425.144,1302.000,1331.000,1262.000
432.563,1351.000,1317.000,1253.000
439.977,1367.000,1339.000,1266.000
447.386,1364.000,1312.000,1289.000
454.788,1387.000,1313.000,1291.000
462.183,1387.000,1344.000,1309.000
469.574,1403.000,1334.000,1297.000
476.957,1388.000,1350.000,1312.000
484.335,1403.000,1355.000,1300.000
491.706,1412.000,1364.000,1323.000
499.072,1427.000,1357.000,1289.000
506.432,1393.000,1363.000,1305.000
513.788,1381.000,1363.000,1280.000
521.136,1358.000,1318.000,1308.000
528.479,1364.000,1308.000,1255.000
535.815,1343.000,1294.000,1255.000
543.145,1374.000,1281.000,1249.000
550.469,1364.000,1259.000,1229.000
557.788,1353.000,1265.000,1223.000
565.100,1324.000,1253.000,1248.000
572.408,1369.000,1278.000,1225.000
579.711,1334.000,1297.000,1215.000
587.006,1334.000,1304.000,1212.000
594.295,1343.000,1289.000,1263.000
601.579,1340.000,1261.000,1232.000
608.856,1357.000,1298.000,1223.000
616.129,1364.000,1259.000,1249.000
623.394,1300.000,1293.000,1223.000
630.655,1366.000,1311.000,1246.000
637.911,1357.000,1255.000,1272.000
645.160,1341.000,1313.000,1233.000
652.403,1351.000,1294.000,1222.000
659.640,1403.000,1275.000,1252.000
666.872,1371.000,1270.000,1216.000
674.097,1380.000,1274.000,1218.000
681.317,1394.000,1286.000,1251.000
688.531,1381.000,1299.000,1258.000
695.739,1379.000,1325.000,1273.000
702.944,1395.000,1337.000,1295.000
710.141,1405.000,1307.000,1251.000
717.332,1416.000,1316.000,1249.000
724.517,1393.000,1337.000,1252.000
731.697,1387.000,1349.000,1262.000
738.871,1393.000,1324.000,1251.000
746.039,1386.000,1314.000,1270.000
753.202,1412.000,1379.000,1287.000
760.360,1422.000,1292.000,1272.000
767.512,1407.000,1351.000,1307.000
774.657,1413.000,1323.000,1337.000
781.797,1429.000,1337.000,1307.000
788.932,1401.000,1379.000,1287.000
796.060,1433.000,1358.000,1309.000
803.184,1448.000,1377.000,1329.000
810.301,1449.000,1393.000,1317.000
817.413,1469.000,1374.000,1322.000
824.520,1446.000,1396.000,1310.000
831.622,1415.000,1381.000,1311.000
838.716,1439.000,1349.000,1268.000
845.806,1439.000,1352.000,1323.000
852.890,1445.000,1401.000,1317.000
859.968,1455.000,1389.000,1311.000
867.040,1441.000,1378.000,1331.000
874.106,1497.000,1402.000,1281.000
881.168,1439.000,1346.000,1324.000
888.226,1480.000,1415.000,1347.000
895.276,1493.000,1400.000,1329.000
902.321,1483.000,1378.000,1342.000
909.360,1494.000,1407.000,1354.000
916.393,1490.000,1413.000,1332.000
923.422,1503.000,1431.000,1353.000
930.444,1532.000,1414.000,1337.000
937.461,1478.000,1422.000,1359.000
944.475,1520.000,1399.000,1389.000
951.481,1493.000,1381.000,1400.000
958.482,1510.000,1418.000,1395.000
965.476,1525.000,1451.000,1375.000
972.466,1517.000,1454.000,1373.000
979.451,1498.000,1485.000,1375.000
986.428,1524.000,1422.000,1393.000
993.402,1561.000,1471.000,1400.000
1000.369,1547.000,1463.000,1435.000
1007.333,1540.000,1507.000,1427.000
1014.290,1589.000,1479.000,1463.000
1021.241,1606.000,1493.000,1433.000
1028.188,1607.000,1509.000,1432.000
1035.128,1633.000,1575.000,1490.000
1042.063,1638.000,1555.000,1483.000
1048.994,1760.000,1657.000,1641.000
1055.917,2179.000,2091.000,1971.000
1062.838,2400.000,2362.000,2274.000
1069.752,1842.000,1759.000,1666.000
1076.660,1671.000,1587.000,1539.000
1083.562,1643.000,1548.000,1499.000
1090.460,1662.000,1532.000,1458.000
1097.351,1589.000,1463.000,1406.000
1104.238,1628.000,1503.000,1448.000
1111.120,1631.000,1547.000,1453.000
1117.995,1623.000,1509.000,1441.000
1124.867,1609.000,1541.000,1477.000
1131.733,1630.000,1544.000,1447.000
1138.593,1627.000,1548.000,1468.000
1145.447,1640.000,1528.000,1496.000
1152.297,1645.000,1552.000,1472.000
1159.141,1626.000,1590.000,1491.000
1165.979,1637.000,1546.000,1474.000
1172.813,1610.000,1526.000,1508.000
1179.641,1636.000,1512.000,1487.000
1186.465,1654.000,1585.000,1487.000
1193.282,1663.000,1576.000,1472.000
1200.095,1649.000,1559.000,1486.000
1206.902,1697.000,1590.000,1484.000
1213.703,1699.000,1582.000,1473.000
1220.499,1679.000,1569.000,1507.000
1227.291,1677.000,1554.000,1511.000
1234.076,1650.000,1570.000,1474.000
1240.858,1685.000,1575.000,1533.000
1247.634,1686.000,1589.000,1498.000
1254.405,1678.000,1569.000,1506.000
1261.170,1707.000,1595.000,1533.000
1267.929,1656.000,1595.000,1499.000
1274.683,1710.000,1564.000,1494.000
1281.433,1692.000,1584.000,1507.000
1288.177,1739.000,1590.000,1529.000
1294.916,1720.000,1584.000,1529.000
1301.652,1701.000,1620.000,1514.000
1308.380,1714.000,1593.000,1543.000
1315.104,1691.000,1580.000,1503.000
1321.822,1695.000,1604.000,1530.000
1328.535,1705.000,1612.000,1530.000
1335.243,1738.000,1609.000,1548.000
1341.946,1738.000,1634.000,1540.000
1348.643,1707.000,1595.000,1559.000
1355.337,1761.000,1642.000,1574.000
1362.025,1724.000,1645.000,1565.000
1368.707,1722.000,1640.000,1575.000
1375.384,1728.000,1623.000,1539.000
1382.057,1743.000,1614.000,1566.000
1388.723,1768.000,1661.000,1526.000
1395.385,1728.000,1634.000,1556.000
1402.042,1783.000,1633.000,1574.000
1408.692,1772.000,1656.000,1609.000
1415.341,1710.000,1650.000,1564.000
1421.982,1802.000,1713.000,1618.000
1428.619,1830.000,1733.000,1652.000
1435.250,1810.000,1727.000,1599.000
1441.877,1804.000,1719.000,1601.000
1448.497,1798.000,1686.000,1629.000
1455.114,1838.000,1728.000,1622.000
1461.725,1777.000,1672.000,1596.000
1468.331,1749.000,1671.000,1649.000
1474.934,1795.000,1703.000,1610.000
1481.530,1774.000,1684.000,1624.000
1488.120,1813.000,1698.000,1640.000
1494.707,1791.000,1699.000,1636.000
1501.287,1789.000,1719.000,1618.000
1507.863,1796.000,1700.000,1662.000
1514.435,1792.000,1706.000,1643.000
1521.001,1791.000,1747.000,1615.000
1527.561,1831.000,1722.000,1629.000
1534.118,1811.000,1725.000,1656.000
1540.670,1820.000,1710.000,1632.000
1547.216,1865.000,1759.000,1633.000
1553.756,1864.000,1749.000,1714.000
1560.293,1883.000,1725.000,1708.000
1566.824,1890.000,1754.000,1698.000
1573.350,1868.000,1744.000,1656.000
1579.872,1862.000,1775.000,1687.000
1586.390,1884.000,1748.000,1658.000
1592.901,1839.000,1757.000,1652.000
1599.408,1869.000,1727.000,1681.000
1605.909,1862.000,1751.000,1685.000
1612.405,1836.000,1714.000,1640.000
1618.898,1894.000,1734.000,1691.000
1625.384,1831.000,1787.000,1714.000
1631.866,1857.000,1729.000,1672.000
1638.345,1849.000,1742.000,1691.000
1644.816,1883.000,1759.000,1654.000
1651.285,1855.000,1741.000,1683.000
1657.747,1914.000,1764.000,1691.000
1664.204,1850.000,1760.000,1694.000
1670.656,1840.000,1730.000,1671.000
1677.104,1867.000,1738.000,1675.000
1683.548,1891.000,1758.000,1691.000
1689.986,1884.000,1764.000,1699.000
1696.420,1911.000,1733.000,1662.000
1702.848,1870.000,1760.000,1632.000
1709.272,1885.000,1769.000,1687.000
1715.691,1920.000,1770.000,1730.000
1722.105,1907.000,1776.000,1650.000
1728.514,1886.000,1770.000,1691.000
1734.918,1843.000,1766.000,1696.000
1741.318,1899.000,1770.000,1701.000
1747.712,1881.000,1711.000,1661.000
1754.104,1851.000,1796.000,1686.000
1760.489,1897.000,1802.000,1678.000
1766.870,1853.000,1764.000,1695.000
1773.245,1901.000,1751.000,1690.000
1779.616,1880.000,1772.000,1679.000
1785.982,1936.000,1791.000,1724.000
1792.343,1849.000,1746.000,1730.000
1798.700,1934.000,1695.000,1699.000
1805.052,1900.000,1787.000,1727.000
1811.400,1932.000,1738.000,1694.000
1816.157,1913.000,1794.000,1719.000

File: 2025_08_23_AbNTS_MA10_S21_10GPa_Glass_50X_532nm_6mW_Kymera328_600gv_2000wn_3accum_30s_UnPol_Pos3.csv
19.981,13074.000,13054.000,13096.000
37.206,8166.000,8269.000,8324.000
54.398,5889.000,5900.000,5912.000
71.561,5654.000,5663.000,5587.000
88.692,5765.000,5832.000,5740.000
105.792,5799.000,5860.000,5846.000
122.858,5997.000,6061.000,5964.000
139.896,5256.000,5238.000,5248.000
156.902,5300.000,5272.000,5255.000
173.875,5436.000,5417.000,5373.000
190.821,5409.000,5344.000,5384.000
207.733,5295.000,5201.000,5275.000
224.615,5124.000,5163.000,5090.000
241.467,5119.000,5099.000,5090.000
258.289,5040.000,4967.000,4996.000
275.081,4927.000,4891.000,4913.000
291.839,4909.000,4952.000,4902.000
308.570,4926.000,4915.000,4952.000
325.271,4987.000,4938.000,4912.000
341.938,4994.000,4907.000,4965.000
358.579,5077.000,4990.000,5009.000
375.189,5082.000,5066.000,5057.000
391.770,5152.000,5053.000,5058.000
408.318,5178.000,5052.000,5124.000
424.839,5185.000,5164.000,5146.000
441.330,5268.000,5171.000,5157.000
457.790,5270.000,5276.000,5233.000
474.222,5343.000,5282.000,5271.000
490.624,5331.000,5297.000,5310.000
506.995,5303.000,5341.000,5330.000
523.340,5264.000,5263.000,5195.000
539.654,5172.000,5175.000,5210.000
555.940,5115.000,5157.000,5102.000
572.195,5175.000,5075.000,5092.000
588.423,5137.000,5064.000,5105.000
604.621,5178.000,5118.000,5140.000
620.790,5176.000,5148.000,5086.000
636.931,5192.000,5126.000,5169.000
653.044,5193.000,5158.000,5151.000
669.128,5160.000,5162.000,5087.000
685.182,5208.000,5099.000,5121.000
701.210,5260.000,5179.000,5165.000
717.209,5202.000,5243.000,5208.000
733.177,5215.000,5208.000,5172.000
749.119,5355.000,5238.000,5275.000
765.033,5347.000,5184.000,5242.000
780.920,5294.000,5321.000,5249.000
796.776,5372.000,5286.000,5254.000
812.606,5375.000,5336.000,5306.000
828.410,5342.000,5205.000,5287.000
844.183,5390.000,5275.000,5246.000
859.930,5337.000,5248.000,5283.000
875.650,5366.000,5269.000,5285.000
891.339,5408.000,5330.000,5366.000
907.004,5410.000,5371.000,5370.000
922.642,5491.000,5426.000,5386.000
938.251,5525.000,5459.000,5467.000
953.832,5653.000,5534.000,5525.000
969.388,5635.000,5583.000,5655.000
984.916,5782.000,5678.000,5659.000
1000.416,5799.000,5682.000,5702.000
1015.891,5832.000,5780.000,5736.000
1031.338,6042.000,5886.000,5913.000
1046.757,6378.000,6316.000,6369.000
1062.151,7061.000,7003.000,6958.000
1077.519,7145.000,7045.000,7124.000
1092.859,6165.000,6063.000,6055.000
1108.171,6112.000,5972.000,5948.000
1123.459,6063.000,5962.000,6012.000
1138.721,6070.000,5917.000,5991.000
1153.954,6058.000,6097.000,6000.000
1169.162,6064.000,6002.000,5932.000
1184.345,6074.000,5955.000,5885.000
1199.501,6051.000,5912.000,5998.000
1214.629,6099.000,5966.000,5988.000
1229.734,5959.000,5949.000,5947.000
1244.812,6014.000,6004.000,5927.000
1259.864,6114.000,6015.000,6056.000
1274.889,6144.000,6019.000,6052.000
1289.891,6107.000,6069.000,6096.000
1304.866,6174.000,6103.000,6021.000
1319.814,6163.000,6073.000,6086.000
1334.738,6285.000,6139.000,6117.000
1349.637,6264.000,6207.000,6088.000
1364.509,14759.000,6139.000,6272.000
1379.357,6407.000,6235.000,6262.000
1394.180,6411.000,6302.000,6370.000
1408.978,6470.000,6326.000,6400.000
1423.747,6587.000,6473.000,6453.000
1438.495,6741.000,6635.000,6638.000
1453.218,6697.000,6474.000,6532.000
1467.913,6739.000,6494.000,6569.000
1482.586,6697.000,6548.000,6599.000
1497.233,6681.000,6581.000,6649.000
1511.854,6847.000,6678.000,6687.000
1526.452,6877.000,6764.000,6774.000
1541.026,6957.000,6807.000,6837.000
1555.575,6973.000,6843.000,6843.000
1570.098,7056.000,6931.000,6918.000
1584.598,7075.000,6936.000,6863.000
1599.073,7051.000,6892.000,6945.000
1613.523,7053.000,6874.000,6892.000
1627.950,7048.000,6929.000,6909.000
1642.353,7089.000,6902.000,6913.000
1656.729,6934.000,6939.000,6935.000
1671.084,7116.000,7034.000,6974.000
1685.415,7063.000,6917.000,6970.000
1699.721,7157.000,6978.000,6970.000
1714.002,7096.000,6987.000,6939.000
1728.262,7118.000,7009.000,6940.000
1742.497,7164.000,7034.000,7008.000
1756.707,7091.000,6997.000,7041.000
1770.894,7227.000,7008.000,7015.000
1785.059,7217.000,7037.000,7045.000
1799.198,7252.000,7046.000,7100.000
1813.314,7255.000,7136.000,7085.000
1827.408,7323.000,7233.000,7152.000
1841.478,7338.000,7225.000,7216.000
1855.524,7381.000,7248.000,7213.000
1869.547,7400.000,7252.000,7225.000
1883.547,7503.000,7350.000,7331.000
1897.525,7552.000,7393.000,7235.000
1911.477,7575.000,7387.000,7366.000
1925.409,7598.000,7477.000,7510.000
1939.317,7605.000,7523.000,7432.000
1953.201,7679.000,7484.000,7560.000
1967.063,7742.000,7609.000,7537.000
1980.903,7691.000,7552.000,7526.000
1994.718,7721.000,7535.000,7507.000
2008.513,7737.000,7606.000,7536.000
2022.284,7748.000,7622.000,7577.000
2036.031,7707.000,7715.000,7611.000
2049.758,7790.000,7679.000,7631.000
2063.462,7774.000,7755.000,7680.000
2077.145,7892.000,7740.000,7633.000
2090.802,7910.000,7768.000,7668.000
2104.439,7871.000,7885.000,7852.000
2118.054,7980.000,7819.000,7785.000
2131.644,7974.000,7893.000,7837.000
2145.215,7953.000,7870.000,7833.000
2158.763,7931.000,7928.000,7798.000
2172.290,8043.000,7931.000,7911.000
2185.793,7972.000,7989.000,7879.000
2199.275,8144.000,7969.000,8025.000
2212.736,8141.000,8062.000,7983.000
2226.174,8123.000,8028.000,7968.000
2239.591,8123.000,8088.000,8049.000
2252.985,8215.000,8151.000,8030.000
2266.359,8214.000,8180.000,8073.000
2279.710,8264.000,8138.000,8154.000
2293.040,8249.000,8070.000,8051.000
2306.349,8314.000,8160.000,8178.000
2319.635,8295.000,8236.000,8184.000
2332.901,8408.000,8287.000,8196.000
2346.147,8410.000,8302.000,8311.000
2359.370,8347.000,8369.000,8279.000
2372.571,8474.000,8376.000,8321.000
2385.751,8611.000,8459.000,8352.000
2398.912,8480.000,8440.000,8397.000
2412.048,8609.000,8544.000,8473.000
2425.167,8523.000,8500.000,8427.000
2438.264,8589.000,8533.000,8461.000
2451.339,8583.000,8535.000,8450.000
2464.393,8647.000,8516.000,8472.000
2477.427,8647.000,8617.000,8554.000
2490.440,8710.000,8582.000,8558.000
2503.432,8709.000,8598.000,8594.000
2516.404,8826.000,8662.000,8627.000
2529.355,8746.000,8712.000,8664.000
2542.284,8850.000,8743.000,8723.000
2555.195,8801.000,8730.000,8777.000
2568.084,8815.000,8864.000,8765.000
2580.952,8872.000,8738.000,8775.000
2593.800,8871.000,8943.000,8882.000
2606.629,8812.000,8834.000,8684.000
2619.437,8890.000,8762.000,8735.000
2632.224,8900.000,8871.000,8767.000
2644.992,8988.000,8855.000,8831.000
2657.739,9057.000,8938.000,8832.000
2670.466,9095.000,9019.000,8919.000
2683.172,8952.000,9053.000,8902.000
2695.861,8978.000,8926.000,8797.000
2708.528,9014.000,8969.000,8890.000
2721.174,9023.000,8902.000,9001.000
2733.801,8978.000,8872.000,8890.000
2746.409,9008.000,8956.000,9065.000
2758.996,9043.000,8881.000,8960.000
2771.564,9050.000,8941.000,9002.000
2784.114,9148.000,8959.000,8994.000
2796.642,9159.000,9022.000,9037.000
2809.150,9180.000,9047.000,9001.000
2821.640,9226.000,9149.000,9133.000
2834.111,9327.000,9253.000,9166.000
2846.560,9476.000,9404.000,9351.000
2858.992,9523.000,9524.000,9481.000
2871.404,9638.000,9510.000,9476.000
2883.797,9681.000,9565.000,9545.000
2896.169,9697.000,10467.000,9655.000
2908.523,9649.000,9636.000,9617.000
2920.859,9665.000,9632.000,9636.000
2933.173,9762.000,9765.000,9689.000
2945.470,9802.000,9684.000,9686.000
2957.748,9894.000,9809.000,9677.000
2970.006,9808.000,9718.000,9778.000
2982.246,9827.000,9738.000,9748.000
2994.467,9787.000,9794.000,9694.000
3006.667,9732.000,9732.000,9737.000
3018.851,9864.000,9742.000,9715.000
3031.016,9894.000,9747.000,9819.000
3043.161,9852.000,9707.000,9813.000
3055.287,9853.000,9804.000,9729.000
3067.395,9857.000,9866.000,9806.000
3079.485,9915.000,9842.000,9803.000
3091.555,10048.000,9835.000,9991.000
3103.608,9947.000,9943.000,9928.000
3115.643,10039.000,9986.000,9916.000
3127.658,10042.000,9964.000,10011.000
3139.654,10025.000,10055.000,9909.000
3151.634,10072.000,9922.000,9939.000
3163.594,10126.000,10099.000,10035.000
3175.535,10131.000,10021.000,10074.000
3187.459,10132.000,10061.000,10040.000
3199.365,10158.000,10123.000,10121.000
3211.253,10167.000,10051.000,10172.000
3223.122,10230.000,10135.000,10160.000
3234.974,10202.000,10124.000,10209.000
3246.808,10385.000,10194.000,10303.000
3258.622,10387.000,10271.000,10250.000
3270.419,10382.000,10180.000,10250.000
3282.199,10292.000,10206.000,10386.000
3293.962,10425.000,10302.000,10270.000
3305.705,10471.000,10370.000,10290.000
3317.431,10484.000,10385.000,10260.000
3329.139,10485.000,10302.000,10263.000
3340.829,10408.000,10364.000,10419.000
3352.502,10447.000,10282.000,10251.000
3364.158,10581.000,10288.000,10440.000
3375.796,10521.000,10505.000,10430.000
3387.415,10581.000,10498.000,10588.000
3399.018,10632.000,10550.000,10602.000
3410.604,10712.000,10620.000,10653.000
3422.171,10845.000,10760.000,10774.000
3433.722,11088.000,11017.000,10894.000
3445.255,11274.000,11096.000,11068.000
3456.771,11160.000,10947.000,11041.000
3468.269,10928.000,10761.000,10847.000
3479.751,10715.000,10681.000,10707.000
3491.215,10553.000,10489.000,10658.000
3502.662,10543.000,10523.000,10508.000
3514.091,10466.000,10519.000,10539.000
3525.505,10755.000,10552.000,10472.000
3536.900,10682.000,10514.000,10535.000
3548.279,10574.000,10571.000,10644.000
3559.641,10719.000,10668.000,10633.000
3570.985,10752.000,10701.000,10571.000
3582.313,10760.000,10677.000,10708.000
3590.799,10695.000,10637.000,10716.000