Folder: Data/FTIR/Clancy

Note: FTIR/README
YargerLab FT-IR Data Repo

File: CBN_recrystal_Floraworks_2025_10_4_ECE_scan1.csv
Created as New Dataset,Sample 183 By YargerLab Date Friday, October 03 2025
cm-1,A
4000.00,0.0126
3987.00,0.0126
3974.00,0.0128
3961.00,0.0127
3948.00,0.0126
3935.00,0.0125
3922.00,0.0126
3909.00,0.0126
3896.00,0.0125
3883.00,0.0125
3870.00,0.0124
3857.00,0.0125
3844.00,0.0125
3831.00,0.0123
3818.00,0.0123
3805.00,0.0123
3792.00,0.0122
3779.00,0.0121
3766.00,0.0122
3753.00,0.0123
3740.00,0.0121
3727.00,0.0119
3714.00,0.0120
3701.00,0.0117
3688.00,0.0118
3675.00,0.0118
3662.00,0.0118
3649.00,0.0117
3636.00,0.0117
3623.00,0.0116
3610.00,0.0118
3597.00,0.0119
3584.00,0.0119
3571.00,0.0121
3558.00,0.0124
3545.00,0.0129
3532.00,0.0135
3519.00,0.0142
3506.00,0.0152
3493.00,0.0167
3480.00,0.0189
3467.00,0.0217
3454.00,0.0251
3441.00,0.0290
3428.00,0.0346
3415.00,0.0410
3402.00,0.0450
3389.00,0.0436
3376.00,0.0397
3363.00,0.0364
3350.00,0.0344
3337.00,0.0336
3324.00,0.0339
3311.00,0.0352
3298.00,0.0372
3285.00,0.0397
3272.00,0.0423
3259.00,0.0448
3246.00,0.0472
3233.00,0.0482
3220.00,0.0479
3207.00,0.0458
3194.00,0.0426
3181.00,0.0390
3168.00,0.0353
3155.00,0.0315
3142.00,0.0283
3129.00,0.0258
3116.00,0.0241
3103.00,0.0219
3090.00,0.0216
3077.00,0.0214
3064.00,0.0210
3051.00,0.0213
3038.00,0.0217
3025.00,0.0213
3012.00,0.0194
2999.00,0.0238
2986.00,0.0326
2973.00,0.0493
2960.00,0.0659
2947.00,0.0480
2934.00,0.0792
2921.00,0.0995
2908.00,0.0636
2895.00,0.0463
2882.00,0.0394
2869.00,0.0496
2856.00,0.0781
2843.00,0.0476
2830.00,0.0298
2817.00,0.0248
2804.00,0.0226
2791.00,0.0209
2778.00,0.0197
2765.00,0.0191
2752.00,0.0191
2739.00,0.0195
2726.00,0.0204
2713.00,0.0194
2700.00,0.0191
2687.00,0.0184
2674.00,0.0182
2661.00,0.0189
2648.00,0.0190
2635.00,0.0185
2622.00,0.0175
2609.00,0.0173
2596.00,0.0177
2583.00,0.0178
2570.00,0.0173
2557.00,0.0168
2544.00,0.0165
2531.00,0.0166
2518.00,0.0161
2505.00,0.0157
2492.00,0.0154
2479.00,0.0152
2466.00,0.0149
2453.00,0.0150
2440.00,0.0146
2427.00,0.0144
2414.00,0.0143
2401.00,0.0142
2388.00,0.0140
2375.00,0.0139
2362.00,0.0140
2349.00,0.0141
2336.00,0.0142
2323.00,0.0151
2310.00,0.0140
2297.00,0.0141
2284.00,0.0146
2271.00,0.0137
2258.00,0.0130
2245.00,0.0130
2232.00,0.0130
2219.00,0.0128
2206.00,0.0130
2193.00,0.0126
2180.00,0.0123
2167.00,0.0132
2154.00,0.0100
2141.00,0.0109
2128.00,0.0109
2115.00,0.0118
2102.00,0.0117
2089.00,0.0114
2076.00,0.0121
2063.00,0.0113
2050.00,0.0114
2037.00,0.0113
2024.00,0.0106
2011.00,0.0106
1998.00,0.0108
1985.00,0.0116
1972.00,0.0105
1959.00,0.0101
1946.00,0.0106
1933.00,0.0110
1920.00,0.0117
1907.00,0.0146
1894.00,0.0132
1881.00,0.0116
1868.00,0.0117
1855.00,0.0119
1842.00,0.0126
1829.00,0.0116
1816.00,0.0115
1803.00,0.0119
1790.00,0.0125
1777.00,0.0128
1764.00,0.0128
1751.00,0.0127
1738.00,0.0131
1725.00,0.0146
1712.00,0.0160
1699.00,0.0165
1686.00,0.0172
1673.00,0.0178
1660.00,0.0188
1647.00,0.0207
1634.00,0.0313
1621.00,0.1245
1608.00,0.0952
1595.00,0.0480
1582.00,0.1046
1569.00,0.0658
1556.00,0.0342
1543.00,0.0291
1530.00,0.0260
1517.00,0.0316
1504.00,0.0384
1491.00,0.0546
1478.00,0.0295
1465.00,0.0704
1452.00,0.0604
1439.00,0.0826
1426.00,0.1018
1413.00,0.0717
1400.00,0.1287
1387.00,0.0872
1374.00,0.0646
1361.00,0.1002
1348.00,0.0823
1335.00,0.0586
1322.00,0.0573
1309.00,0.0519
1296.00,0.0869
1283.00,0.0922
1270.00,0.0463
1257.00,0.0369
1244.00,0.0653
1231.00,0.0993
1218.00,0.0673
1205.00,0.0535
1192.00,0.1116
1179.00,0.0437
1166.00,0.0375
1153.00,0.1058
1140.00,0.0422
1127.00,0.1413
1114.00,0.0636
1101.00,0.0889
1088.00,0.0411
1075.00,0.0376
1062.00,0.0655
1049.00,0.1868
1036.00,0.0937
1023.00,0.1435
1010.00,0.0587
997.00,0.0763
984.00,0.0434
971.00,0.0398
958.00,0.0372
945.00,0.0321
932.00,0.0441
919.00,0.0469
906.00,0.0292
893.00,0.0425
880.00,0.0356
867.00,0.1122
854.00,0.0736
841.00,0.0662
828.00,0.0757
815.00,0.1538
802.00,0.0368
789.00,0.0297
776.00,0.0403
763.00,0.0343
750.00,0.0327
737.00,0.0659
724.00,0.0595
711.00,0.0611
698.00,0.0642
685.00,0.0657
672.00,0.0818
659.00,0.0757
646.00,0.0535
633.00,0.0510
620.00,0.0730
607.00,0.0687
594.00,0.0961
581.00,0.0817
568.00,0.0691
555.00,0.0843
542.00,0.0980
529.00,0.0993
516.00,0.0563
503.00,0.0566
490.00,0.0561
477.00,0.0404
464.00,0.0358
451.00,0.0350
438.00,0.0353
425.00,0.0294
412.00,0.0387
400.00,0.0322

File: CBN_recrystal_Floraworks_2025_10_4_ECE_scan2.csv
Created as New Dataset,Sample 184 By YargerLab Date Saturday, October 04 2025
cm-1,A
4000.00,0.0116
3987.00,0.0115
3974.00,0.0117
3961.00,0.0116
3948.00,0.0115
3935.00,0.0114
3922.00,0.0115
3909.00,0.0114
3896.00,0.0114
3883.00,0.0113
3870.00,0.0112
3857.00,0.0113
3844.00,0.0112
3831.00,0.0112
3818.00,0.0111
3805.00,0.0111
3792.00,0.0111
3779.00,0.0111
3766.00,0.0110
3753.00,0.0109
3740.00,0.0109
3727.00,0.0107
3714.00,0.0107
3701.00,0.0106
3688.00,0.0106
3675.00,0.0106
3662.00,0.0107
3649.00,0.0105
3636.00,0.0106
3623.00,0.0105
3610.00,0.0106
3597.00,0.0107
3584.00,0.0107
3571.00,0.0110
3558.00,0.0112
3545.00,0.0117
3532.00,0.0123
3519.00,0.0130
3506.00,0.0140
3493.00,0.0155
3480.00,0.0177
3467.00,0.0205
3454.00,0.0239
3441.00,0.0279
3428.00,0.0334
3415.00,0.0398
3402.00,0.0437
3389.00,0.0421
3376.00,0.0383
3363.00,0.0350
3350.00,0.0330
3337.00,0.0322
3324.00,0.0325
3311.00,0.0339
3298.00,0.0358
3285.00,0.0383
3272.00,0.0409
3259.00,0.0434
3246.00,0.0456
3233.00,0.0466
3220.00,0.0462
3207.00,0.0440
3194.00,0.0407
3181.00,0.0372
3168.00,0.0335
3155.00,0.0297
3142.00,0.0267
3129.00,0.0242
3116.00,0.0225
3103.00,0.0204
3090.00,0.0201
3077.00,0.0199
3064.00,0.0196
3051.00,0.0199
3038.00,0.0203
3025.00,0.0199
3012.00,0.0181
2999.00,0.0225
2986.00,0.0312
2973.00,0.0477
2960.00,0.0639
2947.00,0.0463
2934.00,0.0773
2921.00,0.0966
2908.00,0.0611
2895.00,0.0441
2882.00,0.0374
2869.00,0.0475
2856.00,0.0755
2843.00,0.0451
2830.00,0.0278
2817.00,0.0229
2804.00,0.0207
2791.00,0.0192
2778.00,0.0180
2765.00,0.0175
2752.00,0.0174
2739.00,0.0179
2726.00,0.0187
2713.00,0.0177
2700.00,0.0175
2687.00,0.0168
2674.00,0.0166
2661.00,0.0173
2648.00,0.0174
2635.00,0.0169
2622.00,0.0159
2609.00,0.0158
2596.00,0.0162
2583.00,0.0162
2570.00,0.0157
2557.00,0.0152
2544.00,0.0150
2531.00,0.0151
2518.00,0.0145
2505.00,0.0141
2492.00,0.0138
2479.00,0.0136
2466.00,0.0134
2453.00,0.0135
2440.00,0.0131
2427.00,0.0129
2414.00,0.0129
2401.00,0.0127
2388.00,0.0125
2375.00,0.0123
2362.00,0.0123
2349.00,0.0124
2336.00,0.0126
2323.00,0.0134
2310.00,0.0122
2297.00,0.0125
2284.00,0.0131
2271.00,0.0120
2258.00,0.0115
2245.00,0.0116
2232.00,0.0117
2219.00,0.0115
2206.00,0.0115
2193.00,0.0112
2180.00,0.0108
2167.00,0.0117
2154.00,0.0086
2141.00,0.0096
2128.00,0.0094
2115.00,0.0105
2102.00,0.0101
2089.00,0.0099
2076.00,0.0106
2063.00,0.0100
2050.00,0.0100
2037.00,0.0101
2024.00,0.0093
2011.00,0.0093
1998.00,0.0093
1985.00,0.0103
1972.00,0.0092
1959.00,0.0087
1946.00,0.0093
1933.00,0.0096
1920.00,0.0102
1907.00,0.0131
1894.00,0.0116
1881.00,0.0102
1868.00,0.0102
1855.00,0.0105
1842.00,0.0111
1829.00,0.0101
1816.00,0.0100
1803.00,0.0104
1790.00,0.0110
1777.00,0.0113
1764.00,0.0113
1751.00,0.0111
1738.00,0.0115
1725.00,0.0130
1712.00,0.0145
1699.00,0.0150
1686.00,0.0157
1673.00,0.0162
1660.00,0.0173
1647.00,0.0192
1634.00,0.0299
1621.00,0.1212
1608.00,0.0918
1595.00,0.0456
1582.00,0.1011
1569.00,0.0627
1556.00,0.0318
1543.00,0.0270
1530.00,0.0240
1517.00,0.0296
1504.00,0.0364
1491.00,0.0520
1478.00,0.0277
1465.00,0.0676
1452.00,0.0580
1439.00,0.0797
1426.00,0.0981
1413.00,0.0687
1400.00,0.1245
1387.00,0.0838
1374.00,0.0616
1361.00,0.0965
1348.00,0.0786
1335.00,0.0556
1322.00,0.0544
1309.00,0.0494
1296.00,0.0832
1283.00,0.0882
1270.00,0.0431
1257.00,0.0342
1244.00,0.0623
1231.00,0.0953
1218.00,0.0640
1205.00,0.0504
1192.00,0.1071
1179.00,0.0406
1166.00,0.0349
1153.00,0.1021
1140.00,0.0398
1127.00,0.1370
1114.00,0.0599
1101.00,0.0851
1088.00,0.0381
1075.00,0.0350
1062.00,0.0630
1049.00,0.1816
1036.00,0.0896
1023.00,0.1370
1010.00,0.0551
997.00,0.0720
984.00,0.0399
971.00,0.0367
958.00,0.0340
945.00,0.0291
932.00,0.0412
919.00,0.0437
906.00,0.0266
893.00,0.0397
880.00,0.0329
867.00,0.1080
854.00,0.0704
841.00,0.0622
828.00,0.0713
815.00,0.1469
802.00,0.0334
789.00,0.0266
776.00,0.0371
763.00,0.0313
750.00,0.0297
737.00,0.0620
724.00,0.0555
711.00,0.0568
698.00,0.0601
685.00,0.0614
672.00,0.0771
659.00,0.0712
646.00,0.0497
633.00,0.0475
620.00,0.0681
607.00,0.0643
594.00,0.0903
581.00,0.0769
568.00,0.0647
555.00,0.0794
542.00,0.0924
529.00,0.0929
516.00,0.0521
503.00,0.0525
490.00,0.0516
477.00,0.0370
464.00,0.0326
451.00,0.0322
438.00,0.0313
425.00,0.0257
412.00,0.0337
400.00,0.0303

File: CBN_recrystal_Floraworks_2025_10_4_ECE_scan3.csv
Created as New Dataset,Sample 185 By YargerLab Date Saturday, October 04 2025
cm-1,A
4000.00,0.0117
3987.00,0.0116
3974.00,0.0118
3961.00,0.0118
3948.00,0.0117
3935.00,0.0116
3922.00,0.0117
3909.00,0.0116
3896.00,0.0115
3883.00,0.0114
3870.00,0.0114
3857.00,0.0115
3844.00,0.0113
3831.00,0.0112
3818.00,0.0113
3805.00,0.0112
3792.00,0.0112
3779.00,0.0112
3766.00,0.0111
3753.00,0.0112
3740.00,0.0110
3727.00,0.0109
3714.00,0.0108
3701.00,0.0107
3688.00,0.0107
3675.00,0.0106
3662.00,0.0107
3649.00,0.0105
3636.00,0.0107
3623.00,0.0106
3610.00,0.0107
3597.00,0.0107
3584.00,0.0108
3571.00,0.0110
3558.00,0.0113
3545.00,0.0118
3532.00,0.0124
3519.00,0.0132
3506.00,0.0143
3493.00,0.0159
3480.00,0.0181
3467.00,0.0213
3454.00,0.0248
3441.00,0.0291
3428.00,0.0351
3415.00,0.0420
3402.00,0.0462
3389.00,0.0444
3376.00,0.0402
3363.00,0.0366
3350.00,0.0345
3337.00,0.0336
3324.00,0.0340
3311.00,0.0354
3298.00,0.0375
3285.00,0.0401
3272.00,0.0429
3259.00,0.0456
3246.00,0.0480
3233.00,0.0490
3220.00,0.0486
3207.00,0.0462
3194.00,0.0427
3181.00,0.0388
3168.00,0.0349
3155.00,0.0309
3142.00,0.0276
3129.00,0.0250
3116.00,0.0231
3103.00,0.0209
3090.00,0.0207
3077.00,0.0205
3064.00,0.0200
3051.00,0.0204
3038.00,0.0209
3025.00,0.0205
3012.00,0.0186
2999.00,0.0232
2986.00,0.0326
2973.00,0.0500
2960.00,0.0675
2947.00,0.0485
2934.00,0.0816
2921.00,0.1026
2908.00,0.0643
2895.00,0.0461
2882.00,0.0389
2869.00,0.0498
2856.00,0.0798
2843.00,0.0471
2830.00,0.0286
2817.00,0.0234
2804.00,0.0212
2791.00,0.0195
2778.00,0.0182
2765.00,0.0177
2752.00,0.0176
2739.00,0.0181
2726.00,0.0191
2713.00,0.0180
2700.00,0.0177
2687.00,0.0170
2674.00,0.0168
2661.00,0.0175
2648.00,0.0176
2635.00,0.0170
2622.00,0.0161
2609.00,0.0159
2596.00,0.0163
2583.00,0.0163
2570.00,0.0159
2557.00,0.0153
2544.00,0.0150
2531.00,0.0152
2518.00,0.0147
2505.00,0.0141
2492.00,0.0138
2479.00,0.0137
2466.00,0.0134
2453.00,0.0134
2440.00,0.0131
2427.00,0.0128
2414.00,0.0128
2401.00,0.0127
2388.00,0.0125
2375.00,0.0123
2362.00,0.0122
2349.00,0.0123
2336.00,0.0124
2323.00,0.0132
2310.00,0.0123
2297.00,0.0125
2284.00,0.0129
2271.00,0.0119
2258.00,0.0114
2245.00,0.0114
2232.00,0.0114
2219.00,0.0113
2206.00,0.0113
2193.00,0.0110
2180.00,0.0107
2167.00,0.0115
2154.00,0.0087
2141.00,0.0095
2128.00,0.0093
2115.00,0.0103
2102.00,0.0099
2089.00,0.0096
2076.00,0.0104
2063.00,0.0095
2050.00,0.0096
2037.00,0.0097
2024.00,0.0090
2011.00,0.0090
1998.00,0.0090
1985.00,0.0099
1972.00,0.0089
1959.00,0.0084
1946.00,0.0090
1933.00,0.0095
1920.00,0.0100
1907.00,0.0130
1894.00,0.0116
1881.00,0.0099
1868.00,0.0102
1855.00,0.0102
1842.00,0.0110
1829.00,0.0099
1816.00,0.0099
1803.00,0.0102
1790.00,0.0108
1777.00,0.0112
1764.00,0.0111
1751.00,0.0109
1738.00,0.0113
1725.00,0.0129
1712.00,0.0144
1699.00,0.0149
1686.00,0.0156
1673.00,0.0162
1660.00,0.0173
1647.00,0.0191
1634.00,0.0307
1621.00,0.1281
1608.00,0.0965
1595.00,0.0471
1582.00,0.1065
1569.00,0.0653
1556.00,0.0324
1543.00,0.0273
1530.00,0.0243
1517.00,0.0301
1504.00,0.0376
1491.00,0.0541
1478.00,0.0283
1465.00,0.0706
1452.00,0.0604
1439.00,0.0834
1426.00,0.1029
1413.00,0.0716
1400.00,0.1312
1387.00,0.0878
1374.00,0.0637
1361.00,0.1014
1348.00,0.0820
1335.00,0.0575
1322.00,0.0564
1309.00,0.0510
1296.00,0.0869
1283.00,0.0919
1270.00,0.0441
1257.00,0.0348
1244.00,0.0646
1231.00,0.0994
1218.00,0.0663
1205.00,0.0520
1192.00,0.1124
1179.00,0.0415
1166.00,0.0355
1153.00,0.1071
1140.00,0.0407
1127.00,0.1443
1114.00,0.0615
1101.00,0.0883
1088.00,0.0385
1075.00,0.0355
1062.00,0.0652
1049.00,0.1921
1036.00,0.0930
1023.00,0.1435
1010.00,0.0562
997.00,0.0743
984.00,0.0406
971.00,0.0372
958.00,0.0343
945.00,0.0293
932.00,0.0420
919.00,0.0448
906.00,0.0266
893.00,0.0405
880.00,0.0336
867.00,0.1128
854.00,0.0727
841.00,0.0639
828.00,0.0736
815.00,0.1538
802.00,0.0334
789.00,0.0266
776.00,0.0374
763.00,0.0313
750.00,0.0298
737.00,0.0640
724.00,0.0570
711.00,0.0584
698.00,0.0619
685.00,0.0633
672.00,0.0798
659.00,0.0731
646.00,0.0506
633.00,0.0483
620.00,0.0701
607.00,0.0658
594.00,0.0936
581.00,0.0792
568.00,0.0663
555.00,0.0817
542.00,0.0953
529.00,0.0960
516.00,0.0531
503.00,0.0536
490.00,0.0528
477.00,0.0366
464.00,0.0327
451.00,0.0324
438.00,0.0319
425.00,0.0259
412.00,0.0356
400.00,0.0292

File: HPMC_polymer_v2600_5600_ECE_scan1.csv
Created as New Dataset,Sample 286 By YargerLab Date Saturday, October 18 2025
cm-1,A
4000.00,0.0059
3987.00,0.0059
3974.00,0.0059
3961.00,0.0059
3948.00,0.0059
3935.00,0.0059
3922.00,0.0059
3909.00,0.0058
3896.00,0.0059
3883.00,0.0058
3870.00,0.0059
3857.00,0.0059
3844.00,0.0058
3831.00,0.0057
3818.00,0.0057
3805.00,0.0057
3792.00,0.0057
3779.00,0.0057
3766.00,0.0057
3753.00,0.0057
3740.00,0.0056
3727.00,0.0056
3714.00,0.0057
3701.00,0.0055
3688.00,0.0055
3675.00,0.0056
3662.00,0.0057
3649.00,0.0058
3636.00,0.0059
3623.00,0.0061
3610.00,0.0066
3597.00,0.0067
3584.00,0.0070
3571.00,0.0074
3558.00,0.0079
3545.00,0.0085
3532.00,0.0092
3519.00,0.0103
3506.00,0.0114
3493.00,0.0128
3480.00,0.0139
3467.00,0.0146
3454.00,0.0146
3441.00,0.0143
3428.00,0.0138
3415.00,0.0133
3402.00,0.0128
3389.00,0.0122
3376.00,0.0116
3363.00,0.0110
3350.00,0.0105
3337.00,0.0101
3324.00,0.0096
3311.00,0.0093
3298.00,0.0089
3285.00,0.0087
3272.00,0.0085
3259.00,0.0082
3246.00,0.0080
3233.00,0.0078
3220.00,0.0076
3207.00,0.0074
3194.00,0.0073
3181.00,0.0072
3168.00,0.0071
3155.00,0.0070
3142.00,0.0069
3129.00,0.0069
3116.00,0.0068
3103.00,0.0068
3090.00,0.0068
3077.00,0.0067
3064.00,0.0068
3051.00,0.0068
3038.00,0.0069
3025.00,0.0070
3012.00,0.0074
2999.00,0.0089
2986.00,0.0113
2973.00,0.0125
2960.00,0.0132
2947.00,0.0157
2934.00,0.0196
2921.00,0.0205
2908.00,0.0213
2895.00,0.0215
2882.00,0.0207
2869.00,0.0190
2856.00,0.0170
2843.00,0.0176
2830.00,0.0183
2817.00,0.0165
2804.00,0.0132
2791.00,0.0110
2778.00,0.0103
2765.00,0.0099
2752.00,0.0097
2739.00,0.0095
2726.00,0.0093
2713.00,0.0091
2700.00,0.0090
2687.00,0.0089
2674.00,0.0089
2661.00,0.0091
2648.00,0.0092
2635.00,0.0091
2622.00,0.0091
2609.00,0.0089
2596.00,0.0089
2583.00,0.0088
2570.00,0.0086
2557.00,0.0085
2544.00,0.0083
2531.00,0.0083
2518.00,0.0083
2505.00,0.0081
2492.00,0.0082
2479.00,0.0082
2466.00,0.0083
2453.00,0.0083
2440.00,0.0082
2427.00,0.0081
2414.00,0.0081
2401.00,0.0080
2388.00,0.0079
2375.00,0.0076
2362.00,0.0076
2349.00,0.0077
2336.00,0.0080
2323.00,0.0088
2310.00,0.0080
2297.00,0.0084
2284.00,0.0089
2271.00,0.0086
2258.00,0.0085
2245.00,0.0084
2232.00,0.0081
2219.00,0.0081
2206.00,0.0082
2193.00,0.0084
2180.00,0.0078
2167.00,0.0084
2154.00,0.0059
2141.00,0.0065
2128.00,0.0071
2115.00,0.0082
2102.00,0.0081
2089.00,0.0080
2076.00,0.0082
2063.00,0.0082
2050.00,0.0086
2037.00,0.0075
2024.00,0.0071
2011.00,0.0068
1998.00,0.0073
1985.00,0.0078
1972.00,0.0066
1959.00,0.0065
1946.00,0.0070
1933.00,0.0073
1920.00,0.0076
1907.00,0.0074
1894.00,0.0076
1881.00,0.0075
1868.00,0.0077
1855.00,0.0077
1842.00,0.0078
1829.00,0.0077
1816.00,0.0077
1803.00,0.0081
1790.00,0.0082
1777.00,0.0082
1764.00,0.0083
1751.00,0.0085
1738.00,0.0086
1725.00,0.0085
1712.00,0.0081
1699.00,0.0062
1686.00,0.0019
1673.00,0.0010
1660.00,0.0029
1647.00,0.0070
1634.00,0.0097
1621.00,0.0102
1608.00,0.0099
1595.00,0.0092
1582.00,0.0096
1569.00,0.0093
1556.00,0.0092
1543.00,0.0091
1530.00,0.0090
1517.00,0.0090
1504.00,0.0088
1491.00,0.0089
1478.00,0.0131
1465.00,0.0173
1452.00,0.0202
1439.00,0.0152
1426.00,0.0117
1413.00,0.0162
1400.00,0.0167
1387.00,0.0180
1374.00,0.0229
1361.00,0.0198
1348.00,0.0184
1335.00,0.0201
1322.00,0.0200
1309.00,0.0213
1296.00,0.0164
1283.00,0.0141
1270.00,0.0134
1257.00,0.0135
1244.00,0.0128
1231.00,0.0122
1218.00,0.0158
1205.00,0.0212
1192.00,0.0239
1179.00,0.0229
1166.00,0.0286
1153.00,0.0432
1140.00,0.0505
1127.00,0.0693
1114.00,0.0844
1101.00,0.0889
1088.00,0.0934
1075.00,0.1112
1062.00,0.1278
1049.00,0.1317
1036.00,0.1208
1023.00,0.1093
1010.00,0.0980
997.00,0.0789
984.00,0.0612
971.00,0.0515
958.00,0.0577
945.00,0.0688
932.00,0.0607
919.00,0.0544
906.00,0.0479
893.00,0.0439
880.00,0.0386
867.00,0.0334
854.00,0.0327
841.00,0.0316
828.00,0.0300
815.00,0.0296
802.00,0.0283
789.00,0.0274
776.00,0.0269
763.00,0.0266
750.00,0.0263
737.00,0.0262
724.00,0.0265
711.00,0.0282
698.00,0.0284
685.00,0.0289
672.00,0.0356
659.00,0.0398
646.00,0.0398
633.00,0.0414
620.00,0.0454
607.00,0.0481
594.00,0.0491
581.00,0.0517
568.00,0.0551
555.00,0.0552
542.00,0.0556
529.00,0.0561
516.00,0.0569
503.00,0.0580
490.00,0.0589
477.00,0.0603
464.00,0.0603
451.00,0.0589
438.00,0.0561
425.00,0.0550
412.00,0.0541
400.00,0.0536

File: HPMC_polymer_v2600_5600_ECE_scan2.csv
Created as New Dataset,Sample 287 By YargerLab Date Saturday, October 18 2025
cm-1,A
4000.00,0.0075
3987.00,0.0075
3974.00,0.0075
3961.00,0.0075
3948.00,0.0074
3935.00,0.0074
3922.00,0.0074
3909.00,0.0074
3896.00,0.0073
3883.00,0.0073
3870.00,0.0073
3857.00,0.0072
3844.00,0.0072
3831.00,0.0072
3818.00,0.0072
3805.00,0.0072
3792.00,0.0072
3779.00,0.0073
3766.00,0.0071
3753.00,0.0072
3740.00,0.0070
3727.00,0.0070
3714.00,0.0071
3701.00,0.0070
3688.00,0.0070
3675.00,0.0070
3662.00,0.0072
3649.00,0.0072
3636.00,0.0075
3623.00,0.0077
3610.00,0.0083
3597.00,0.0087
3584.00,0.0092
3571.00,0.0097
3558.00,0.0104
3545.00,0.0114
3532.00,0.0126
3519.00,0.0141
3506.00,0.0159
3493.00,0.0179
3480.00,0.0195
3467.00,0.0204
3454.00,0.0204
3441.00,0.0199
3428.00,0.0190
3415.00,0.0182
3402.00,0.0173
3389.00,0.0164
3376.00,0.0155
3363.00,0.0145
3350.00,0.0138
3337.00,0.0130
3324.00,0.0124
3311.00,0.0117
3298.00,0.0113
3285.00,0.0109
3272.00,0.0106
3259.00,0.0102
3246.00,0.0099
3233.00,0.0095
3220.00,0.0093
3207.00,0.0091
3194.00,0.0089
3181.00,0.0087
3168.00,0.0086
3155.00,0.0085
3142.00,0.0084
3129.00,0.0084
3116.00,0.0083
3103.00,0.0083
3090.00,0.0083
3077.00,0.0083
3064.00,0.0084
3051.00,0.0084
3038.00,0.0085
3025.00,0.0087
3012.00,0.0095
2999.00,0.0117
2986.00,0.0152
2973.00,0.0168
2960.00,0.0179
2947.00,0.0218
2934.00,0.0270
2921.00,0.0282
2908.00,0.0298
2895.00,0.0301
2882.00,0.0289
2869.00,0.0261
2856.00,0.0228
2843.00,0.0242
2830.00,0.0250
2817.00,0.0222
2804.00,0.0171
2791.00,0.0140
2778.00,0.0129
2765.00,0.0124
2752.00,0.0121
2739.00,0.0118
2726.00,0.0115
2713.00,0.0113
2700.00,0.0111
2687.00,0.0110
2674.00,0.0108
2661.00,0.0112
2648.00,0.0113
2635.00,0.0111
2622.00,0.0111
2609.00,0.0109
2596.00,0.0108
2583.00,0.0107
2570.00,0.0104
2557.00,0.0103
2544.00,0.0102
2531.00,0.0101
2518.00,0.0100
2505.00,0.0099
2492.00,0.0100
2479.00,0.0099
2466.00,0.0100
2453.00,0.0101
2440.00,0.0099
2427.00,0.0098
2414.00,0.0098
2401.00,0.0097
2388.00,0.0095
2375.00,0.0092
2362.00,0.0092
2349.00,0.0093
2336.00,0.0096
2323.00,0.0106
2310.00,0.0097
2297.00,0.0102
2284.00,0.0106
2271.00,0.0102
2258.00,0.0102
2245.00,0.0099
2232.00,0.0097
2219.00,0.0097
2206.00,0.0097
2193.00,0.0100
2180.00,0.0094
2167.00,0.0102
2154.00,0.0074
2141.00,0.0081
2128.00,0.0087
2115.00,0.0098
2102.00,0.0097
2089.00,0.0097
2076.00,0.0099
2063.00,0.0096
2050.00,0.0104
2037.00,0.0090
2024.00,0.0080
2011.00,0.0080
1998.00,0.0088
1985.00,0.0093
1972.00,0.0081
1959.00,0.0080
1946.00,0.0085
1933.00,0.0087
1920.00,0.0091
1907.00,0.0089
1894.00,0.0090
1881.00,0.0090
1868.00,0.0092
1855.00,0.0093
1842.00,0.0093
1829.00,0.0093
1816.00,0.0093
1803.00,0.0096
1790.00,0.0097
1777.00,0.0097
1764.00,0.0098
1751.00,0.0098
1738.00,0.0100
1725.00,0.0101
1712.00,0.0096
1699.00,0.0076
1686.00,0.0022
1673.00,0.0010
1660.00,0.0025
1647.00,0.0079
1634.00,0.0115
1621.00,0.0119
1608.00,0.0116
1595.00,0.0108
1582.00,0.0112
1569.00,0.0111
1556.00,0.0110
1543.00,0.0108
1530.00,0.0107
1517.00,0.0107
1504.00,0.0106
1491.00,0.0109
1478.00,0.0172
1465.00,0.0233
1452.00,0.0273
1439.00,0.0198
1426.00,0.0150
1413.00,0.0213
1400.00,0.0218
1387.00,0.0239
1374.00,0.0309
1361.00,0.0261
1348.00,0.0244
1335.00,0.0270
1322.00,0.0269
1309.00,0.0285
1296.00,0.0215
1283.00,0.0187
1270.00,0.0176
1257.00,0.0175
1244.00,0.0165
1231.00,0.0159
1218.00,0.0214
1205.00,0.0295
1192.00,0.0330
1179.00,0.0317
1166.00,0.0402
1153.00,0.0609
1140.00,0.0714
1127.00,0.0982
1114.00,0.1203
1101.00,0.1272
1088.00,0.1334
1075.00,0.1592
1062.00,0.1832
1049.00,0.1887
1036.00,0.1719
1023.00,0.1544
1010.00,0.1373
997.00,0.1079
984.00,0.0815
971.00,0.0680
958.00,0.0780
945.00,0.0939
932.00,0.0812
919.00,0.0719
906.00,0.0622
893.00,0.0563
880.00,0.0480
867.00,0.0405
854.00,0.0398
841.00,0.0384
828.00,0.0359
815.00,0.0355
802.00,0.0339
789.00,0.0326
776.00,0.0318
763.00,0.0315
750.00,0.0313
737.00,0.0315
724.00,0.0319
711.00,0.0345
698.00,0.0351
685.00,0.0360
672.00,0.0461
659.00,0.0519
646.00,0.0519
633.00,0.0542
620.00,0.0596
607.00,0.0637
594.00,0.0648
581.00,0.0688
568.00,0.0734
555.00,0.0733
542.00,0.0739
529.00,0.0744
516.00,0.0755
503.00,0.0763
490.00,0.0771
477.00,0.0797
464.00,0.0798
451.00,0.0764
438.00,0.0731
425.00,0.0709
412.00,0.0689
400.00,0.0685

File: HPMC_polymer_v2600_5600_ECE_scan3.csv
Created as New Dataset,Sample 288 By YargerLab Date Saturday, October 18 2025
cm-1,A
4000.00,0.0077
3987.00,0.0077
3974.00,0.0076
3961.00,0.0076
3948.00,0.0077
3935.00,0.0076
3922.00,0.0076
3909.00,0.0076
3896.00,0.0075
3883.00,0.0075
3870.00,0.0075
3857.00,0.0074
3844.00,0.0074
3831.00,0.0074
3818.00,0.0074
3805.00,0.0074
3792.00,0.0074
3779.00,0.0074
3766.00,0.0074
3753.00,0.0073
3740.00,0.0073
3727.00,0.0072
3714.00,0.0072
3701.00,0.0072
3688.00,0.0072
3675.00,0.0073
3662.00,0.0075
3649.00,0.0075
3636.00,0.0078
3623.00,0.0081
3610.00,0.0087
3597.00,0.0092
3584.00,0.0097
3571.00,0.0104
3558.00,0.0112
3545.00,0.0123
3532.00,0.0135
3519.00,0.0152
3506.00,0.0172
3493.00,0.0194
3480.00,0.0213
3467.00,0.0223
3454.00,0.0222
3441.00,0.0216
3428.00,0.0206
3415.00,0.0195
3402.00,0.0186
3389.00,0.0175
3376.00,0.0164
3363.00,0.0153
3350.00,0.0144
3337.00,0.0136
3324.00,0.0128
3311.00,0.0122
3298.00,0.0116
3285.00,0.0112
3272.00,0.0108
3259.00,0.0104
3246.00,0.0100
3233.00,0.0097
3220.00,0.0093
3207.00,0.0091
3194.00,0.0088
3181.00,0.0087
3168.00,0.0086
3155.00,0.0085
3142.00,0.0085
3129.00,0.0085
3116.00,0.0084
3103.00,0.0085
3090.00,0.0085
3077.00,0.0085
3064.00,0.0085
3051.00,0.0086
3038.00,0.0087
3025.00,0.0090
3012.00,0.0098
2999.00,0.0121
2986.00,0.0160
2973.00,0.0176
2960.00,0.0186
2947.00,0.0231
2934.00,0.0286
2921.00,0.0300
2908.00,0.0321
2895.00,0.0327
2882.00,0.0312
2869.00,0.0280
2856.00,0.0241
2843.00,0.0260
2830.00,0.0272
2817.00,0.0240
2804.00,0.0182
2791.00,0.0147
2778.00,0.0136
2765.00,0.0130
2752.00,0.0126
2739.00,0.0123
2726.00,0.0120
2713.00,0.0117
2700.00,0.0115
2687.00,0.0113
2674.00,0.0112
2661.00,0.0116
2648.00,0.0116
2635.00,0.0114
2622.00,0.0113
2609.00,0.0112
2596.00,0.0111
2583.00,0.0109
2570.00,0.0106
2557.00,0.0105
2544.00,0.0103
2531.00,0.0103
2518.00,0.0102
2505.00,0.0101
2492.00,0.0102
2479.00,0.0101
2466.00,0.0102
2453.00,0.0102
2440.00,0.0101
2427.00,0.0101
2414.00,0.0100
2401.00,0.0100
2388.00,0.0097
2375.00,0.0093
2362.00,0.0092
2349.00,0.0094
2336.00,0.0097
2323.00,0.0106
2310.00,0.0099
2297.00,0.0104
2284.00,0.0109
2271.00,0.0103
2258.00,0.0103
2245.00,0.0101
2232.00,0.0099
2219.00,0.0098
2206.00,0.0098
2193.00,0.0099
2180.00,0.0095
2167.00,0.0100
2154.00,0.0075
2141.00,0.0083
2128.00,0.0091
2115.00,0.0102
2102.00,0.0103
2089.00,0.0101
2076.00,0.0102
2063.00,0.0101
2050.00,0.0107
2037.00,0.0096
2024.00,0.0083
2011.00,0.0085
1998.00,0.0090
1985.00,0.0096
1972.00,0.0085
1959.00,0.0084
1946.00,0.0090
1933.00,0.0092
1920.00,0.0095
1907.00,0.0093
1894.00,0.0094
1881.00,0.0095
1868.00,0.0096
1855.00,0.0098
1842.00,0.0097
1829.00,0.0098
1816.00,0.0098
1803.00,0.0101
1790.00,0.0103
1777.00,0.0102
1764.00,0.0103
1751.00,0.0102
1738.00,0.0104
1725.00,0.0105
1712.00,0.0100
1699.00,0.0076
1686.00,0.0015
1673.00,-0.0001
1660.00,0.0013
1647.00,0.0076
1634.00,0.0120
1621.00,0.0125
1608.00,0.0122
1595.00,0.0114
1582.00,0.0118
1569.00,0.0118
1556.00,0.0117
1543.00,0.0115
1530.00,0.0113
1517.00,0.0113
1504.00,0.0112
1491.00,0.0115
1478.00,0.0187
1465.00,0.0254
1452.00,0.0298
1439.00,0.0212
1426.00,0.0158
1413.00,0.0232
1400.00,0.0237
1387.00,0.0261
1374.00,0.0340
1361.00,0.0285
1348.00,0.0267
1335.00,0.0297
1322.00,0.0295
1309.00,0.0314
1296.00,0.0231
1283.00,0.0202
1270.00,0.0191
1257.00,0.0189
1244.00,0.0178
1231.00,0.0172
1218.00,0.0236
1205.00,0.0328
1192.00,0.0370
1179.00,0.0357
1166.00,0.0454
1153.00,0.0693
1140.00,0.0817
1127.00,0.1131
1114.00,0.1389
1101.00,0.1471
1088.00,0.1545
1075.00,0.1851
1062.00,0.2131
1049.00,0.2191
1036.00,0.1986
1023.00,0.1775
1010.00,0.1567
997.00,0.1215
984.00,0.0907
971.00,0.0752
958.00,0.0875
945.00,0.1060
932.00,0.0907
919.00,0.0796
906.00,0.0681
893.00,0.0610
880.00,0.0513
867.00,0.0428
854.00,0.0422
841.00,0.0404
828.00,0.0377
815.00,0.0371
802.00,0.0353
789.00,0.0341
776.00,0.0333
763.00,0.0329
750.00,0.0327
737.00,0.0329
724.00,0.0338
711.00,0.0367
698.00,0.0376
685.00,0.0385
672.00,0.0503
659.00,0.0569
646.00,0.0570
633.00,0.0596
620.00,0.0658
607.00,0.0704
594.00,0.0715
581.00,0.0763
568.00,0.0815
555.00,0.0813
542.00,0.0817
529.00,0.0824
516.00,0.0839
503.00,0.0852
490.00,0.0854
477.00,0.0889
464.00,0.0888
451.00,0.0849
438.00,0.0798
425.00,0.0770
412.00,0.0755
400.00,0.0745