Folder: Data/FTIR/Mary (part 3)

File: 2025_06_11_Standard_Polystyrene_postscan2.csv
Created as New Dataset,Sample 669 By YargerLab Date Wednesday, June 11 2025
cm-1,A
4000.00,0.0011
3987.00,0.0012
3974.00,0.0010
3961.00,0.0010
3948.00,0.0011
3935.00,0.0010
3922.00,0.0011
3909.00,0.0012
3896.00,0.0010
3883.00,0.0009
3870.00,0.0011
3857.00,0.0011
3844.00,0.0010
3831.00,0.0013
3818.00,0.0008
3805.00,0.0010
3792.00,0.0010
3779.00,0.0011
3766.00,0.0011
3753.00,0.0011
3740.00,0.0010
3727.00,0.0012
3714.00,0.0010
3701.00,0.0009
3688.00,0.0008
3675.00,0.0010
3662.00,0.0009
3649.00,0.0006
3636.00,0.0008
3623.00,0.0010
3610.00,0.0004
3597.00,0.0006
3584.00,0.0006
3571.00,0.0007
3558.00,0.0008
3545.00,0.0007
3532.00,0.0009
3519.00,0.0011
3506.00,0.0006
3493.00,0.0006
3480.00,0.0007
3467.00,0.0006
3454.00,0.0007
3441.00,0.0008
3428.00,0.0006
3415.00,0.0005
3402.00,0.0006
3389.00,0.0006
3376.00,0.0006
3363.00,0.0004
3350.00,0.0005
3337.00,-0.0002
3324.00,-0.0002
3311.00,-0.0001
3298.00,-0.0005
3285.00,-0.0004
3272.00,-0.0003
3259.00,-0.0003
3246.00,0.0000
3233.00,0.0003
3220.00,0.0004
3207.00,0.0005
3194.00,0.0006
3181.00,0.0006
3168.00,0.0009
3155.00,0.0009
3142.00,0.0008
3129.00,0.0009
3116.00,0.0010
3103.00,0.0019
3090.00,0.0026
3077.00,0.0033
3064.00,0.0045
3051.00,0.0036
3038.00,0.0039
3025.00,0.0103
3012.00,0.0033
2999.00,0.0031
2986.00,0.0018
2973.00,0.0018
2960.00,0.0023
2947.00,0.0040
2934.00,0.0080
2921.00,0.0108
2908.00,0.0083
2895.00,0.0052
2882.00,0.0038
2869.00,0.0029
2856.00,0.0041
2843.00,0.0043
2830.00,0.0020
2817.00,0.0014
2804.00,0.0013
2791.00,0.0013
2778.00,0.0012
2765.00,0.0011
2752.00,0.0010
2739.00,0.0011
2726.00,0.0011
2713.00,0.0011
2700.00,0.0012
2687.00,0.0011
2674.00,0.0011
2661.00,0.0014
2648.00,0.0015
2635.00,0.0013
2622.00,0.0013
2609.00,0.0013
2596.00,0.0011
2583.00,0.0012
2570.00,0.0011
2557.00,0.0009
2544.00,0.0008
2531.00,0.0008
2518.00,0.0010
2505.00,0.0004
2492.00,0.0008
2479.00,0.0009
2466.00,0.0006
2453.00,0.0010
2440.00,0.0007
2427.00,0.0008
2414.00,0.0005
2401.00,0.0006
2388.00,0.0005
2375.00,0.0004
2362.00,0.0004
2349.00,0.0003
2336.00,0.0008
2323.00,0.0014
2310.00,0.0010
2297.00,0.0011
2284.00,0.0013
2271.00,0.0012
2258.00,0.0006
2245.00,0.0006
2232.00,0.0006
2219.00,0.0004
2206.00,0.0008
2193.00,0.0008
2180.00,-0.0004
2167.00,0.0023
2154.00,-0.0016
2141.00,0.0003
2128.00,-0.0004
2115.00,0.0002
2102.00,0.0004
2089.00,0.0002
2076.00,0.0005
2063.00,0.0006
2050.00,0.0016
2037.00,0.0006
2024.00,-0.0000
2011.00,-0.0003
1998.00,0.0007
1985.00,0.0006
1972.00,0.0001
1959.00,0.0003
1946.00,0.0012
1933.00,0.0008
1920.00,0.0008
1907.00,0.0001
1894.00,0.0007
1881.00,0.0012
1868.00,0.0014
1855.00,0.0008
1842.00,0.0005
1829.00,0.0008
1816.00,0.0009
1803.00,0.0016
1790.00,0.0012
1777.00,0.0009
1764.00,0.0008
1751.00,0.0013
1738.00,0.0016
1725.00,0.0012
1712.00,0.0010
1699.00,0.0005
1686.00,0.0007
1673.00,0.0006
1660.00,0.0001
1647.00,-0.0003
1634.00,-0.0002
1621.00,0.0007
1608.00,0.0042
1595.00,0.0056
1582.00,0.0044
1569.00,0.0013
1556.00,0.0010
1543.00,0.0012
1530.00,0.0004
1517.00,-0.0000
1504.00,0.0012
1491.00,0.0222
1478.00,0.0029
1465.00,0.0030
1452.00,0.0242
1439.00,0.0090
1426.00,0.0026
1413.00,0.0019
1400.00,0.0023
1387.00,0.0037
1374.00,0.0053
1361.00,0.0050
1348.00,0.0047
1335.00,0.0042
1322.00,0.0044
1309.00,0.0046
1296.00,0.0037
1283.00,0.0034
1270.00,0.0025
1257.00,0.0017
1244.00,0.0024
1231.00,0.0020
1218.00,0.0025
1205.00,0.0034
1192.00,0.0045
1179.00,0.0058
1166.00,0.0029
1153.00,0.0056
1140.00,0.0026
1127.00,0.0022
1114.00,0.0029
1101.00,0.0029
1088.00,0.0042
1075.00,0.0065
1062.00,0.0058
1049.00,0.0035
1036.00,0.0050
1023.00,0.0096
1010.00,0.0043
997.00,0.0034
984.00,0.0042
971.00,0.0050
958.00,0.0050
945.00,0.0051
932.00,0.0036
919.00,0.0045
906.00,0.0106
893.00,0.0042
880.00,0.0030
867.00,0.0026
854.00,0.0028
841.00,0.0052
828.00,0.0023
815.00,0.0024
802.00,0.0028
789.00,0.0051
776.00,0.0127
763.00,0.0322
750.00,0.0418
737.00,0.0182
724.00,0.0049
711.00,0.0107
698.00,0.1036
685.00,0.0445
672.00,0.0196
659.00,0.0112
646.00,0.0070
633.00,0.0074
620.00,0.0087
607.00,0.0065
594.00,0.0075
581.00,0.0098
568.00,0.0174
555.00,0.0257
542.00,0.0408
529.00,0.0309
516.00,0.0147
503.00,0.0239
490.00,0.0083
477.00,0.0080
464.00,0.0067
451.00,0.0068
438.00,0.0056
425.00,0.0047
412.00,0.0028
400.00,-0.0017

File: 2025_06_11_Standard_Polystyrene_postscan3.csv
Created as New Dataset,Sample 670 By YargerLab Date Wednesday, June 11 2025
cm-1,A
4000.00,0.0017
3987.00,0.0019
3974.00,0.0017
3961.00,0.0016
3948.00,0.0016
3935.00,0.0016
3922.00,0.0016
3909.00,0.0018
3896.00,0.0016
3883.00,0.0013
3870.00,0.0016
3857.00,0.0016
3844.00,0.0016
3831.00,0.0019
3818.00,0.0014
3805.00,0.0015
3792.00,0.0016
3779.00,0.0017
3766.00,0.0017
3753.00,0.0017
3740.00,0.0015
3727.00,0.0018
3714.00,0.0016
3701.00,0.0016
3688.00,0.0014
3675.00,0.0016
3662.00,0.0015
3649.00,0.0012
3636.00,0.0015
3623.00,0.0018
3610.00,0.0011
3597.00,0.0015
3584.00,0.0014
3571.00,0.0016
3558.00,0.0017
3545.00,0.0017
3532.00,0.0020
3519.00,0.0024
3506.00,0.0018
3493.00,0.0018
3480.00,0.0020
3467.00,0.0019
3454.00,0.0022
3441.00,0.0023
3428.00,0.0023
3415.00,0.0023
3402.00,0.0025
3389.00,0.0026
3376.00,0.0028
3363.00,0.0027
3350.00,0.0028
3337.00,0.0023
3324.00,0.0023
3311.00,0.0025
3298.00,0.0021
3285.00,0.0021
3272.00,0.0023
3259.00,0.0021
3246.00,0.0024
3233.00,0.0025
3220.00,0.0024
3207.00,0.0025
3194.00,0.0027
3181.00,0.0026
3168.00,0.0027
3155.00,0.0027
3142.00,0.0025
3129.00,0.0026
3116.00,0.0027
3103.00,0.0038
3090.00,0.0047
3077.00,0.0057
3064.00,0.0076
3051.00,0.0061
3038.00,0.0065
3025.00,0.0153
3012.00,0.0056
2999.00,0.0053
2986.00,0.0035
2973.00,0.0036
2960.00,0.0045
2947.00,0.0068
2934.00,0.0130
2921.00,0.0173
2908.00,0.0134
2895.00,0.0087
2882.00,0.0066
2869.00,0.0054
2856.00,0.0074
2843.00,0.0073
2830.00,0.0037
2817.00,0.0030
2804.00,0.0029
2791.00,0.0028
2778.00,0.0026
2765.00,0.0027
2752.00,0.0025
2739.00,0.0025
2726.00,0.0024
2713.00,0.0024
2700.00,0.0024
2687.00,0.0024
2674.00,0.0024
2661.00,0.0026
2648.00,0.0027
2635.00,0.0025
2622.00,0.0024
2609.00,0.0024
2596.00,0.0023
2583.00,0.0024
2570.00,0.0021
2557.00,0.0020
2544.00,0.0019
2531.00,0.0019
2518.00,0.0021
2505.00,0.0016
2492.00,0.0020
2479.00,0.0019
2466.00,0.0018
2453.00,0.0019
2440.00,0.0018
2427.00,0.0018
2414.00,0.0015
2401.00,0.0014
2388.00,0.0014
2375.00,0.0014
2362.00,0.0013
2349.00,0.0014
2336.00,0.0017
2323.00,0.0023
2310.00,0.0020
2297.00,0.0022
2284.00,0.0023
2271.00,0.0020
2258.00,0.0015
2245.00,0.0014
2232.00,0.0015
2219.00,0.0011
2206.00,0.0013
2193.00,0.0014
2180.00,0.0000
2167.00,0.0030
2154.00,-0.0009
2141.00,0.0009
2128.00,0.0003
2115.00,0.0011
2102.00,0.0013
2089.00,0.0010
2076.00,0.0013
2063.00,0.0016
2050.00,0.0022
2037.00,0.0012
2024.00,0.0004
2011.00,0.0009
1998.00,0.0012
1985.00,0.0015
1972.00,0.0009
1959.00,0.0010
1946.00,0.0024
1933.00,0.0018
1920.00,0.0016
1907.00,0.0010
1894.00,0.0016
1881.00,0.0023
1868.00,0.0026
1855.00,0.0018
1842.00,0.0014
1829.00,0.0018
1816.00,0.0021
1803.00,0.0029
1790.00,0.0022
1777.00,0.0019
1764.00,0.0019
1751.00,0.0027
1738.00,0.0032
1725.00,0.0028
1712.00,0.0026
1699.00,0.0026
1686.00,0.0035
1673.00,0.0042
1660.00,0.0046
1647.00,0.0046
1634.00,0.0045
1621.00,0.0051
1608.00,0.0090
1595.00,0.0101
1582.00,0.0085
1569.00,0.0044
1556.00,0.0045
1543.00,0.0055
1530.00,0.0048
1517.00,0.0041
1504.00,0.0053
1491.00,0.0327
1478.00,0.0064
1465.00,0.0070
1452.00,0.0364
1439.00,0.0150
1426.00,0.0064
1413.00,0.0056
1400.00,0.0058
1387.00,0.0076
1374.00,0.0099
1361.00,0.0095
1348.00,0.0086
1335.00,0.0081
1322.00,0.0085
1309.00,0.0086
1296.00,0.0071
1283.00,0.0068
1270.00,0.0059
1257.00,0.0051
1244.00,0.0058
1231.00,0.0056
1218.00,0.0057
1205.00,0.0067
1192.00,0.0080
1179.00,0.0097
1166.00,0.0065
1153.00,0.0099
1140.00,0.0057
1127.00,0.0055
1114.00,0.0070
1101.00,0.0073
1088.00,0.0087
1075.00,0.0123
1062.00,0.0118
1049.00,0.0090
1036.00,0.0112
1023.00,0.0170
1010.00,0.0101
997.00,0.0086
984.00,0.0093
971.00,0.0097
958.00,0.0092
945.00,0.0091
932.00,0.0071
919.00,0.0082
906.00,0.0162
893.00,0.0074
880.00,0.0060
867.00,0.0052
854.00,0.0054
841.00,0.0088
828.00,0.0048
815.00,0.0054
802.00,0.0058
789.00,0.0091
776.00,0.0187
763.00,0.0442
750.00,0.0567
737.00,0.0259
724.00,0.0092
711.00,0.0170
698.00,0.1371
685.00,0.0590
672.00,0.0285
659.00,0.0185
646.00,0.0128
633.00,0.0133
620.00,0.0155
607.00,0.0128
594.00,0.0143
581.00,0.0173
568.00,0.0268
555.00,0.0370
542.00,0.0570
529.00,0.0437
516.00,0.0235
503.00,0.0136
490.00,0.0149
477.00,0.0137
464.00,0.0128
451.00,0.0126
438.00,0.0118
425.00,0.0109
412.00,0.0108
400.00,0.0071

File: 2025_06_11_Standard_Polystyrene_prescan_1.csv
Created as New Dataset,Sample 655 By YargerLab Date Tuesday, June 10 2025
cm-1,A
4000.00,0.0041
3987.00,0.0041
3974.00,0.0040
3961.00,0.0041
3948.00,0.0043
3935.00,0.0043
3922.00,0.0043
3909.00,0.0041
3896.00,0.0047
3883.00,0.0046
3870.00,0.0049
3857.00,0.0040
3844.00,0.0048
3831.00,0.0048
3818.00,0.0048
3805.00,0.0047
3792.00,0.0043
3779.00,0.0043
3766.00,0.0046
3753.00,0.0051
3740.00,0.0056
3727.00,0.0050
3714.00,0.0047
3701.00,0.0041
3688.00,0.0045
3675.00,0.0051
3662.00,0.0042
3649.00,0.0056
3636.00,0.0044
3623.00,0.0050
3610.00,0.0055
3597.00,0.0050
3584.00,0.0052
3571.00,0.0051
3558.00,0.0050
3545.00,0.0055
3532.00,0.0053
3519.00,0.0059
3506.00,0.0057
3493.00,0.0057
3480.00,0.0060
3467.00,0.0061
3454.00,0.0064
3441.00,0.0064
3428.00,0.0066
3415.00,0.0068
3402.00,0.0070
3389.00,0.0072
3376.00,0.0075
3363.00,0.0079
3350.00,0.0082
3337.00,0.0087
3324.00,0.0091
3311.00,0.0097
3298.00,0.0101
3285.00,0.0102
3272.00,0.0100
3259.00,0.0092
3246.00,0.0088
3233.00,0.0084
3220.00,0.0080
3207.00,0.0077
3194.00,0.0073
3181.00,0.0070
3168.00,0.0067
3155.00,0.0064
3142.00,0.0064
3129.00,0.0062
3116.00,0.0064
3103.00,0.0076
3090.00,0.0086
3077.00,0.0102
3064.00,0.0126
3051.00,0.0104
3038.00,0.0107
3025.00,0.0216
3012.00,0.0092
2999.00,0.0088
2986.00,0.0067
2973.00,0.0071
2960.00,0.0081
2947.00,0.0112
2934.00,0.0187
2921.00,0.0259
2908.00,0.0205
2895.00,0.0138
2882.00,0.0108
2869.00,0.0093
2856.00,0.0119
2843.00,0.0118
2830.00,0.0067
2817.00,0.0060
2804.00,0.0057
2791.00,0.0054
2778.00,0.0053
2765.00,0.0050
2752.00,0.0050
2739.00,0.0049
2726.00,0.0048
2713.00,0.0048
2700.00,0.0047
2687.00,0.0047
2674.00,0.0046
2661.00,0.0048
2648.00,0.0049
2635.00,0.0049
2622.00,0.0047
2609.00,0.0047
2596.00,0.0045
2583.00,0.0044
2570.00,0.0042
2557.00,0.0041
2544.00,0.0041
2531.00,0.0040
2518.00,0.0041
2505.00,0.0039
2492.00,0.0038
2479.00,0.0038
2466.00,0.0038
2453.00,0.0037
2440.00,0.0037
2427.00,0.0035
2414.00,0.0035
2401.00,0.0034
2388.00,0.0033
2375.00,0.0032
2362.00,0.0035
2349.00,0.0036
2336.00,0.0039
2323.00,0.0043
2310.00,0.0039
2297.00,0.0039
2284.00,0.0039
2271.00,0.0036
2258.00,0.0034
2245.00,0.0033
2232.00,0.0035
2219.00,0.0035
2206.00,0.0034
2193.00,0.0034
2180.00,0.0032
2167.00,0.0037
2154.00,0.0018
2141.00,0.0019
2128.00,0.0021
2115.00,0.0029
2102.00,0.0028
2089.00,0.0027
2076.00,0.0033
2063.00,0.0025
2050.00,0.0031
2037.00,0.0028
2024.00,0.0018
2011.00,-0.0007
1998.00,0.0021
1985.00,0.0034
1972.00,0.0020
1959.00,0.0031
1946.00,0.0045
1933.00,0.0034
1920.00,0.0028
1907.00,0.0026
1894.00,0.0032
1881.00,0.0040
1868.00,0.0044
1855.00,0.0032
1842.00,0.0029
1829.00,0.0029
1816.00,0.0037
1803.00,0.0048
1790.00,0.0040
1777.00,0.0035
1764.00,0.0032
1751.00,0.0042
1738.00,0.0035
1725.00,0.0035
1712.00,0.0042
1699.00,0.0076
1686.00,0.0102
1673.00,0.0131
1660.00,0.0155
1647.00,0.0168
1634.00,0.0166
1621.00,0.0142
1608.00,0.0155
1595.00,0.0159
1582.00,0.0142
1569.00,0.0103
1556.00,0.0124
1543.00,0.0155
1530.00,0.0153
1517.00,0.0160
1504.00,0.0154
1491.00,0.0499
1478.00,0.0124
1465.00,0.0121
1452.00,0.0536
1439.00,0.0240
1426.00,0.0120
1413.00,0.0109
1400.00,0.0108
1387.00,0.0124
1374.00,0.0158
1361.00,0.0147
1348.00,0.0136
1335.00,0.0128
1322.00,0.0128
1309.00,0.0129
1296.00,0.0111
1283.00,0.0106
1270.00,0.0097
1257.00,0.0093
1244.00,0.0097
1231.00,0.0097
1218.00,0.0098
1205.00,0.0105
1192.00,0.0113
1179.00,0.0134
1166.00,0.0095
1153.00,0.0137
1140.00,0.0076
1127.00,0.0073
1114.00,0.0091
1101.00,0.0091
1088.00,0.0106
1075.00,0.0155
1062.00,0.0157
1049.00,0.0118
1036.00,0.0144
1023.00,0.0225
1010.00,0.0136
997.00,0.0110
984.00,0.0118
971.00,0.0115
958.00,0.0110
945.00,0.0105
932.00,0.0084
919.00,0.0094
906.00,0.0201
893.00,0.0084
880.00,0.0067
867.00,0.0058
854.00,0.0065
841.00,0.0112
828.00,0.0065
815.00,0.0066
802.00,0.0073
789.00,0.0113
776.00,0.0250
763.00,0.0623
750.00,0.0816
737.00,0.0373
724.00,0.0129
711.00,0.0242
698.00,0.2125
685.00,0.0868
672.00,0.0415
659.00,0.0271
646.00,0.0194
633.00,0.0205
620.00,0.0233
607.00,0.0192
594.00,0.0204
581.00,0.0243
568.00,0.0373
555.00,0.0522
542.00,0.0805
529.00,0.0604
516.00,0.0324
503.00,0.0168
490.00,0.0178
477.00,0.0157
464.00,0.0141
451.00,0.0138
438.00,0.0120
425.00,0.0114
412.00,0.0120
400.00,0.0103

File: 2025_06_11_Standard_Polystyrene_prescan_2.csv
Created as New Dataset,Sample 656 By YargerLab Date Wednesday, June 11 2025
cm-1,A
4000.00,0.0033
3987.00,0.0033
3974.00,0.0031
3961.00,0.0032
3948.00,0.0035
3935.00,0.0035
3922.00,0.0035
3909.00,0.0032
3896.00,0.0038
3883.00,0.0038
3870.00,0.0041
3857.00,0.0033
3844.00,0.0039
3831.00,0.0039
3818.00,0.0040
3805.00,0.0039
3792.00,0.0035
3779.00,0.0035
3766.00,0.0038
3753.00,0.0043
3740.00,0.0049
3727.00,0.0042
3714.00,0.0039
3701.00,0.0033
3688.00,0.0038
3675.00,0.0043
3662.00,0.0034
3649.00,0.0048
3636.00,0.0036
3623.00,0.0042
3610.00,0.0047
3597.00,0.0042
3584.00,0.0045
3571.00,0.0042
3558.00,0.0041
3545.00,0.0046
3532.00,0.0043
3519.00,0.0046
3506.00,0.0047
3493.00,0.0047
3480.00,0.0049
3467.00,0.0049
3454.00,0.0052
3441.00,0.0052
3428.00,0.0053
3415.00,0.0055
3402.00,0.0057
3389.00,0.0059
3376.00,0.0061
3363.00,0.0065
3350.00,0.0068
3337.00,0.0073
3324.00,0.0076
3311.00,0.0081
3298.00,0.0085
3285.00,0.0085
3272.00,0.0084
3259.00,0.0077
3246.00,0.0073
3233.00,0.0070
3220.00,0.0065
3207.00,0.0062
3194.00,0.0059
3181.00,0.0057
3168.00,0.0054
3155.00,0.0052
3142.00,0.0052
3129.00,0.0050
3116.00,0.0052
3103.00,0.0062
3090.00,0.0071
3077.00,0.0085
3064.00,0.0104
3051.00,0.0086
3038.00,0.0088
3025.00,0.0180
3012.00,0.0075
2999.00,0.0071
2986.00,0.0053
2973.00,0.0055
2960.00,0.0063
2947.00,0.0089
2934.00,0.0149
2921.00,0.0205
2908.00,0.0164
2895.00,0.0110
2882.00,0.0085
2869.00,0.0073
2856.00,0.0092
2843.00,0.0093
2830.00,0.0052
2817.00,0.0047
2804.00,0.0044
2791.00,0.0042
2778.00,0.0041
2765.00,0.0038
2752.00,0.0038
2739.00,0.0039
2726.00,0.0038
2713.00,0.0037
2700.00,0.0037
2687.00,0.0036
2674.00,0.0036
2661.00,0.0038
2648.00,0.0038
2635.00,0.0038
2622.00,0.0037
2609.00,0.0036
2596.00,0.0034
2583.00,0.0033
2570.00,0.0033
2557.00,0.0031
2544.00,0.0031
2531.00,0.0031
2518.00,0.0030
2505.00,0.0030
2492.00,0.0030
2479.00,0.0029
2466.00,0.0029
2453.00,0.0028
2440.00,0.0028
2427.00,0.0026
2414.00,0.0026
2401.00,0.0025
2388.00,0.0025
2375.00,0.0025
2362.00,0.0029
2349.00,0.0028
2336.00,0.0030
2323.00,0.0034
2310.00,0.0033
2297.00,0.0031
2284.00,0.0031
2271.00,0.0027
2258.00,0.0026
2245.00,0.0025
2232.00,0.0026
2219.00,0.0026
2206.00,0.0027
2193.00,0.0023
2180.00,0.0021
2167.00,0.0030
2154.00,0.0008
2141.00,0.0013
2128.00,0.0016
2115.00,0.0022
2102.00,0.0020
2089.00,0.0020
2076.00,0.0026
2063.00,0.0019
2050.00,0.0025
2037.00,0.0018
2024.00,0.0013
2011.00,-0.0009
1998.00,0.0015
1985.00,0.0025
1972.00,0.0018
1959.00,0.0022
1946.00,0.0035
1933.00,0.0026
1920.00,0.0022
1907.00,0.0020
1894.00,0.0025
1881.00,0.0030
1868.00,0.0033
1855.00,0.0025
1842.00,0.0021
1829.00,0.0021
1816.00,0.0027
1803.00,0.0036
1790.00,0.0030
1777.00,0.0026
1764.00,0.0023
1751.00,0.0029
1738.00,0.0020
1725.00,0.0021
1712.00,0.0028
1699.00,0.0058
1686.00,0.0082
1673.00,0.0107
1660.00,0.0128
1647.00,0.0139
1634.00,0.0139
1621.00,0.0119
1608.00,0.0126
1595.00,0.0127
1582.00,0.0112
1569.00,0.0083
1556.00,0.0101
1543.00,0.0126
1530.00,0.0128
1517.00,0.0134
1504.00,0.0129
1491.00,0.0397
1478.00,0.0096
1465.00,0.0093
1452.00,0.0413
1439.00,0.0185
1426.00,0.0089
1413.00,0.0082
1400.00,0.0082
1387.00,0.0095
1374.00,0.0122
1361.00,0.0114
1348.00,0.0105
1335.00,0.0099
1322.00,0.0098
1309.00,0.0100
1296.00,0.0085
1283.00,0.0080
1270.00,0.0073
1257.00,0.0070
1244.00,0.0072
1231.00,0.0074
1218.00,0.0075
1205.00,0.0080
1192.00,0.0086
1179.00,0.0102
1166.00,0.0070
1153.00,0.0103
1140.00,0.0054
1127.00,0.0050
1114.00,0.0063
1101.00,0.0065
1088.00,0.0077
1075.00,0.0118
1062.00,0.0117
1049.00,0.0087
1036.00,0.0110
1023.00,0.0175
1010.00,0.0107
997.00,0.0087
984.00,0.0095
971.00,0.0092
958.00,0.0088
945.00,0.0087
932.00,0.0070
919.00,0.0077
906.00,0.0161
893.00,0.0067
880.00,0.0053
867.00,0.0048
854.00,0.0052
841.00,0.0087
828.00,0.0052
815.00,0.0051
802.00,0.0056
789.00,0.0089
776.00,0.0196
763.00,0.0477
750.00,0.0623
737.00,0.0288
724.00,0.0100
711.00,0.0189
698.00,0.1562
685.00,0.0675
672.00,0.0322
659.00,0.0211
646.00,0.0146
633.00,0.0156
620.00,0.0179
607.00,0.0146
594.00,0.0158
581.00,0.0188
568.00,0.0296
555.00,0.0406
542.00,0.0627
529.00,0.0474
516.00,0.0262
503.00,0.0195
490.00,0.0146
477.00,0.0126
464.00,0.0126
451.00,0.0101
438.00,0.0091
425.00,0.0078
412.00,0.0092
400.00,0.0039

File: 2025_06_11_Standard_Polystyrene_prescan_3.csv
Created as New Dataset,Sample 657 By YargerLab Date Wednesday, June 11 2025
cm-1,A
4000.00,0.0037
3987.00,0.0036
3974.00,0.0035
3961.00,0.0037
3948.00,0.0038
3935.00,0.0039
3922.00,0.0038
3909.00,0.0036
3896.00,0.0042
3883.00,0.0042
3870.00,0.0043
3857.00,0.0036
3844.00,0.0043
3831.00,0.0043
3818.00,0.0043
3805.00,0.0042
3792.00,0.0037
3779.00,0.0038
3766.00,0.0042
3753.00,0.0046
3740.00,0.0051
3727.00,0.0046
3714.00,0.0041
3701.00,0.0036
3688.00,0.0041
3675.00,0.0045
3662.00,0.0037
3649.00,0.0051
3636.00,0.0039
3623.00,0.0045
3610.00,0.0049
3597.00,0.0045
3584.00,0.0047
3571.00,0.0045
3558.00,0.0044
3545.00,0.0049
3532.00,0.0046
3519.00,0.0050
3506.00,0.0049
3493.00,0.0050
3480.00,0.0051
3467.00,0.0053
3454.00,0.0055
3441.00,0.0054
3428.00,0.0056
3415.00,0.0058
3402.00,0.0060
3389.00,0.0062
3376.00,0.0064
3363.00,0.0067
3350.00,0.0071
3337.00,0.0075
3324.00,0.0078
3311.00,0.0083
3298.00,0.0087
3285.00,0.0088
3272.00,0.0086
3259.00,0.0080
3246.00,0.0076
3233.00,0.0072
3220.00,0.0068
3207.00,0.0066
3194.00,0.0063
3181.00,0.0060
3168.00,0.0057
3155.00,0.0055
3142.00,0.0054
3129.00,0.0053
3116.00,0.0055
3103.00,0.0066
3090.00,0.0074
3077.00,0.0087
3064.00,0.0107
3051.00,0.0090
3038.00,0.0092
3025.00,0.0181
3012.00,0.0078
2999.00,0.0074
2986.00,0.0055
2973.00,0.0058
2960.00,0.0065
2947.00,0.0091
2934.00,0.0151
2921.00,0.0204
2908.00,0.0164
2895.00,0.0111
2882.00,0.0087
2869.00,0.0075
2856.00,0.0094
2843.00,0.0095
2830.00,0.0054
2817.00,0.0049
2804.00,0.0046
2791.00,0.0045
2778.00,0.0043
2765.00,0.0041
2752.00,0.0042
2739.00,0.0041
2726.00,0.0040
2713.00,0.0039
2700.00,0.0039
2687.00,0.0039
2674.00,0.0038
2661.00,0.0041
2648.00,0.0041
2635.00,0.0040
2622.00,0.0039
2609.00,0.0038
2596.00,0.0037
2583.00,0.0035
2570.00,0.0035
2557.00,0.0034
2544.00,0.0032
2531.00,0.0032
2518.00,0.0032
2505.00,0.0033
2492.00,0.0033
2479.00,0.0031
2466.00,0.0032
2453.00,0.0031
2440.00,0.0030
2427.00,0.0028
2414.00,0.0028
2401.00,0.0028
2388.00,0.0027
2375.00,0.0027
2362.00,0.0028
2349.00,0.0029
2336.00,0.0030
2323.00,0.0036
2310.00,0.0033
2297.00,0.0032
2284.00,0.0033
2271.00,0.0029
2258.00,0.0028
2245.00,0.0027
2232.00,0.0028
2219.00,0.0028
2206.00,0.0029
2193.00,0.0028
2180.00,0.0020
2167.00,0.0029
2154.00,0.0009
2141.00,0.0016
2128.00,0.0016
2115.00,0.0024
2102.00,0.0021
2089.00,0.0022
2076.00,0.0029
2063.00,0.0020
2050.00,0.0026
2037.00,0.0019
2024.00,0.0016
2011.00,-0.0008
1998.00,0.0019
1985.00,0.0029
1972.00,0.0018
1959.00,0.0024
1946.00,0.0035
1933.00,0.0028
1920.00,0.0023
1907.00,0.0021
1894.00,0.0027
1881.00,0.0033
1868.00,0.0036
1855.00,0.0027
1842.00,0.0023
1829.00,0.0023
1816.00,0.0029
1803.00,0.0038
1790.00,0.0032
1777.00,0.0027
1764.00,0.0024
1751.00,0.0030
1738.00,0.0022
1725.00,0.0023
1712.00,0.0029
1699.00,0.0059
1686.00,0.0083
1673.00,0.0108
1660.00,0.0131
1647.00,0.0142
1634.00,0.0142
1621.00,0.0122
1608.00,0.0130
1595.00,0.0131
1582.00,0.0116
1569.00,0.0084
1556.00,0.0103
1543.00,0.0127
1530.00,0.0130
1517.00,0.0137
1504.00,0.0132
1491.00,0.0414
1478.00,0.0100
1465.00,0.0096
1452.00,0.0435
1439.00,0.0192
1426.00,0.0092
1413.00,0.0083
1400.00,0.0084
1387.00,0.0099
1374.00,0.0126
1361.00,0.0118
1348.00,0.0110
1335.00,0.0103
1322.00,0.0104
1309.00,0.0104
1296.00,0.0090
1283.00,0.0085
1270.00,0.0077
1257.00,0.0071
1244.00,0.0077
1231.00,0.0078
1218.00,0.0078
1205.00,0.0084
1192.00,0.0091
1179.00,0.0107
1166.00,0.0075
1153.00,0.0109
1140.00,0.0058
1127.00,0.0052
1114.00,0.0066
1101.00,0.0066
1088.00,0.0080
1075.00,0.0123
1062.00,0.0123
1049.00,0.0091
1036.00,0.0114
1023.00,0.0180
1010.00,0.0107
997.00,0.0089
984.00,0.0096
971.00,0.0092
958.00,0.0090
945.00,0.0088
932.00,0.0068
919.00,0.0077
906.00,0.0167
893.00,0.0069
880.00,0.0055
867.00,0.0047
854.00,0.0053
841.00,0.0093
828.00,0.0054
815.00,0.0053
802.00,0.0060
789.00,0.0093
776.00,0.0212
763.00,0.0525
750.00,0.0686
737.00,0.0313
724.00,0.0109
711.00,0.0205
698.00,0.1790
685.00,0.0749
672.00,0.0355
659.00,0.0228
646.00,0.0162
633.00,0.0171
620.00,0.0195
607.00,0.0161
594.00,0.0173
581.00,0.0205
568.00,0.0319
555.00,0.0444
542.00,0.0695
529.00,0.0527
516.00,0.0285
503.00,0.0203
490.00,0.0155
477.00,0.0136
464.00,0.0123
451.00,0.0110
438.00,0.0095
425.00,0.0089
412.00,0.0124
400.00,0.0177

File: 2025_06_27_Polystyrene_Std_MEL_scan1.csv
Created as New Dataset,Sample 742 By YargerLab Date Friday, June 27 2025
cm-1,A
4000.00,0.0013
3987.00,0.0012
3974.00,0.0012
3961.00,0.0012
3948.00,0.0013
3935.00,0.0013
3922.00,0.0013
3909.00,0.0012
3896.00,0.0012
3883.00,0.0013
3870.00,0.0013
3857.00,0.0011
3844.00,0.0013
3831.00,0.0013
3818.00,0.0013
3805.00,0.0012
3792.00,0.0012
3779.00,0.0012
3766.00,0.0012
3753.00,0.0013
3740.00,0.0013
3727.00,0.0013
3714.00,0.0011
3701.00,0.0012
3688.00,0.0012
3675.00,0.0011
3662.00,0.0010
3649.00,0.0010
3636.00,0.0010
3623.00,0.0013
3610.00,0.0013
3597.00,0.0013
3584.00,0.0013
3571.00,0.0012
3558.00,0.0012
3545.00,0.0014
3532.00,0.0013
3519.00,0.0014
3506.00,0.0015
3493.00,0.0015
3480.00,0.0015
3467.00,0.0016
3454.00,0.0015
3441.00,0.0016
3428.00,0.0016
3415.00,0.0016
3402.00,0.0016
3389.00,0.0016
3376.00,0.0017
3363.00,0.0016
3350.00,0.0017
3337.00,0.0016
3324.00,0.0016
3311.00,0.0016
3298.00,0.0016
3285.00,0.0016
3272.00,0.0016
3259.00,0.0016
3246.00,0.0016
3233.00,0.0015
3220.00,0.0015
3207.00,0.0015
3194.00,0.0015
3181.00,0.0015
3168.00,0.0015
3155.00,0.0016
3142.00,0.0015
3129.00,0.0016
3116.00,0.0019
3103.00,0.0036
3090.00,0.0047
3077.00,0.0069
3064.00,0.0098
3051.00,0.0073
3038.00,0.0078
3025.00,0.0219
3012.00,0.0061
2999.00,0.0050
2986.00,0.0017
2973.00,0.0018
2960.00,0.0042
2947.00,0.0087
2934.00,0.0188
2921.00,0.0268
2908.00,0.0198
2895.00,0.0114
2882.00,0.0077
2869.00,0.0064
2856.00,0.0102
2843.00,0.0095
2830.00,0.0034
2817.00,0.0025
2804.00,0.0024
2791.00,0.0021
2778.00,0.0020
2765.00,0.0019
2752.00,0.0018
2739.00,0.0018
2726.00,0.0019
2713.00,0.0018
2700.00,0.0018
2687.00,0.0018
2674.00,0.0018
2661.00,0.0021
2648.00,0.0021
2635.00,0.0023
2622.00,0.0020
2609.00,0.0020
2596.00,0.0019
2583.00,0.0018
2570.00,0.0018
2557.00,0.0017
2544.00,0.0016
2531.00,0.0016
2518.00,0.0015
2505.00,0.0015
2492.00,0.0015
2479.00,0.0014
2466.00,0.0014
2453.00,0.0015
2440.00,0.0014
2427.00,0.0012
2414.00,0.0011
2401.00,0.0011
2388.00,0.0011
2375.00,0.0011
2362.00,0.0013
2349.00,0.0014
2336.00,0.0017
2323.00,0.0025
2310.00,0.0020
2297.00,0.0020
2284.00,0.0022
2271.00,0.0017
2258.00,0.0017
2245.00,0.0016
2232.00,0.0017
2219.00,0.0016
2206.00,0.0015
2193.00,0.0014
2180.00,0.0010
2167.00,0.0022
2154.00,-0.0007
2141.00,-0.0002
2128.00,0.0002
2115.00,0.0011
2102.00,0.0010
2089.00,0.0009
2076.00,0.0011
2063.00,0.0011
2050.00,0.0014
2037.00,0.0013
2024.00,0.0005
2011.00,0.0008
1998.00,0.0008
1985.00,0.0017
1972.00,0.0006
1959.00,0.0017
1946.00,0.0033
1933.00,0.0020
1920.00,0.0012
1907.00,0.0010
1894.00,0.0018
1881.00,0.0028
1868.00,0.0033
1855.00,0.0017
1842.00,0.0012
1829.00,0.0015
1816.00,0.0024
1803.00,0.0037
1790.00,0.0024
1777.00,0.0020
1764.00,0.0022
1751.00,0.0038
1738.00,0.0042
1725.00,0.0034
1712.00,0.0030
1699.00,0.0028
1686.00,0.0028
1673.00,0.0031
1660.00,0.0031
1647.00,0.0026
1634.00,0.0026
1621.00,0.0029
1608.00,0.0087
1595.00,0.0114
1582.00,0.0089
1569.00,0.0027
1556.00,0.0027
1543.00,0.0037
1530.00,0.0030
1517.00,0.0029
1504.00,0.0051
1491.00,0.0507
1478.00,0.0064
1465.00,0.0066
1452.00,0.0564
1439.00,0.0204
1426.00,0.0062
1413.00,0.0044
1400.00,0.0041
1387.00,0.0070
1374.00,0.0115
1361.00,0.0111
1348.00,0.0102
1335.00,0.0089
1322.00,0.0095
1309.00,0.0098
1296.00,0.0079
1283.00,0.0072
1270.00,0.0057
1257.00,0.0049
1244.00,0.0054
1231.00,0.0054
1218.00,0.0056
1205.00,0.0073
1192.00,0.0089
1179.00,0.0112
1166.00,0.0065
1153.00,0.0113
1140.00,0.0047
1127.00,0.0045
1114.00,0.0066
1101.00,0.0067
1088.00,0.0082
1075.00,0.0136
1062.00,0.0136
1049.00,0.0092
1036.00,0.0130
1023.00,0.0221
1010.00,0.0119
997.00,0.0094
984.00,0.0108
971.00,0.0102
958.00,0.0095
945.00,0.0094
932.00,0.0070
919.00,0.0085
906.00,0.0207
893.00,0.0075
880.00,0.0055
867.00,0.0048
854.00,0.0054
841.00,0.0103
828.00,0.0047
815.00,0.0046
802.00,0.0053
789.00,0.0102
776.00,0.0258
763.00,0.0679
750.00,0.0885
737.00,0.0370
724.00,0.0103
711.00,0.0232
698.00,0.2333
685.00,0.0848
672.00,0.0371
659.00,0.0217
646.00,0.0133
633.00,0.0150
620.00,0.0183
607.00,0.0139
594.00,0.0154
581.00,0.0203
568.00,0.0349
555.00,0.0507
542.00,0.0805
529.00,0.0568
516.00,0.0281
503.00,0.0182
490.00,0.0138
477.00,0.0114
464.00,0.0105
451.00,0.0099
438.00,0.0086
425.00,0.0070
412.00,0.0079
400.00,0.0069