Folder: Data/FTIR/Mary (part 6)

File: 2025_11_14_Polystyrene_Post_Scan3.csv
Created as New Dataset,Sample 368 By YargerLab Date Friday, November 14 2025
cm-1,A
4000.00,0.0001
3987.00,0.0001
3974.00,0.0000
3961.00,-0.0000
3948.00,0.0000
3935.00,0.0000
3922.00,0.0000
3909.00,0.0000
3896.00,0.0000
3883.00,0.0000
3870.00,0.0000
3857.00,0.0000
3844.00,0.0000
3831.00,0.0001
3818.00,0.0000
3805.00,0.0001
3792.00,0.0000
3779.00,-0.0000
3766.00,0.0000
3753.00,0.0001
3740.00,0.0001
3727.00,0.0001
3714.00,-0.0000
3701.00,0.0001
3688.00,-0.0000
3675.00,0.0001
3662.00,0.0001
3649.00,0.0004
3636.00,0.0003
3623.00,0.0004
3610.00,0.0004
3597.00,0.0005
3584.00,0.0005
3571.00,0.0007
3558.00,0.0008
3545.00,0.0010
3532.00,0.0011
3519.00,0.0013
3506.00,0.0014
3493.00,0.0015
3480.00,0.0018
3467.00,0.0018
3454.00,0.0019
3441.00,0.0019
3428.00,0.0021
3415.00,0.0021
3402.00,0.0022
3389.00,0.0023
3376.00,0.0024
3363.00,0.0025
3350.00,0.0026
3337.00,0.0026
3324.00,0.0028
3311.00,0.0028
3298.00,0.0028
3285.00,0.0028
3272.00,0.0026
3259.00,0.0025
3246.00,0.0023
3233.00,0.0023
3220.00,0.0021
3207.00,0.0022
3194.00,0.0020
3181.00,0.0018
3168.00,0.0018
3155.00,0.0016
3142.00,0.0015
3129.00,0.0015
3116.00,0.0020
3103.00,0.0047
3090.00,0.0065
3077.00,0.0100
3064.00,0.0149
3051.00,0.0106
3038.00,0.0114
3025.00,0.0346
3012.00,0.0080
2999.00,0.0082
2986.00,0.0043
2973.00,0.0050
2960.00,0.0080
2947.00,0.0148
2934.00,0.0313
2921.00,0.0461
2908.00,0.0325
2895.00,0.0184
2882.00,0.0123
2869.00,0.0097
2856.00,0.0161
2843.00,0.0137
2830.00,0.0036
2817.00,0.0026
2804.00,0.0022
2791.00,0.0018
2778.00,0.0017
2765.00,0.0014
2752.00,0.0013
2739.00,0.0013
2726.00,0.0013
2713.00,0.0013
2700.00,0.0011
2687.00,0.0012
2674.00,0.0012
2661.00,0.0015
2648.00,0.0016
2635.00,0.0016
2622.00,0.0013
2609.00,0.0013
2596.00,0.0011
2583.00,0.0010
2570.00,0.0007
2557.00,0.0007
2544.00,0.0007
2531.00,0.0006
2518.00,0.0006
2505.00,0.0005
2492.00,0.0004
2479.00,0.0003
2466.00,0.0002
2453.00,0.0003
2440.00,0.0001
2427.00,-0.0001
2414.00,-0.0001
2401.00,-0.0003
2388.00,-0.0002
2375.00,-0.0001
2362.00,0.0002
2349.00,0.0005
2336.00,0.0009
2323.00,0.0015
2310.00,0.0012
2297.00,0.0009
2284.00,0.0010
2271.00,0.0005
2258.00,0.0005
2245.00,0.0002
2232.00,0.0001
2219.00,-0.0005
2206.00,-0.0003
2193.00,0.0001
2180.00,-0.0003
2167.00,0.0001
2154.00,-0.0026
2141.00,-0.0018
2128.00,-0.0015
2115.00,-0.0004
2102.00,-0.0004
2089.00,-0.0004
2076.00,-0.0003
2063.00,-0.0008
2050.00,-0.0001
2037.00,-0.0003
2024.00,-0.0007
2011.00,-0.0010
1998.00,-0.0004
1985.00,0.0005
1972.00,-0.0004
1959.00,0.0012
1946.00,0.0039
1933.00,0.0020
1920.00,0.0004
1907.00,0.0002
1894.00,0.0014
1881.00,0.0031
1868.00,0.0037
1855.00,0.0014
1842.00,0.0005
1829.00,0.0013
1816.00,0.0028
1803.00,0.0051
1790.00,0.0032
1777.00,0.0035
1764.00,0.0046
1751.00,0.0106
1738.00,0.0122
1725.00,0.0076
1712.00,0.0053
1699.00,0.0056
1686.00,0.0067
1673.00,0.0080
1660.00,0.0077
1647.00,0.0061
1634.00,0.0050
1621.00,0.0051
1608.00,0.0143
1595.00,0.0194
1582.00,0.0159
1569.00,0.0063
1556.00,0.0067
1543.00,0.0080
1530.00,0.0057
1517.00,0.0049
1504.00,0.0077
1491.00,0.0807
1478.00,0.0101
1465.00,0.0105
1452.00,0.0916
1439.00,0.0332
1426.00,0.0110
1413.00,0.0089
1400.00,0.0086
1387.00,0.0135
1374.00,0.0201
1361.00,0.0188
1348.00,0.0168
1335.00,0.0151
1322.00,0.0162
1309.00,0.0168
1296.00,0.0141
1283.00,0.0132
1270.00,0.0114
1257.00,0.0105
1244.00,0.0110
1231.00,0.0104
1218.00,0.0100
1205.00,0.0122
1192.00,0.0152
1179.00,0.0203
1166.00,0.0133
1153.00,0.0207
1140.00,0.0100
1127.00,0.0097
1114.00,0.0133
1101.00,0.0133
1088.00,0.0145
1075.00,0.0219
1062.00,0.0214
1049.00,0.0135
1036.00,0.0186
1023.00,0.0340
1010.00,0.0174
997.00,0.0133
984.00,0.0150
971.00,0.0144
958.00,0.0139
945.00,0.0136
932.00,0.0097
919.00,0.0115
906.00,0.0300
893.00,0.0098
880.00,0.0068
867.00,0.0062
854.00,0.0068
841.00,0.0145
828.00,0.0062
815.00,0.0063
802.00,0.0072
789.00,0.0141
776.00,0.0378
763.00,0.1042
750.00,0.1367
737.00,0.0555
724.00,0.0134
711.00,0.0300
698.00,0.3828
685.00,0.1318
672.00,0.0586
659.00,0.0354
646.00,0.0235
633.00,0.0253
620.00,0.0298
607.00,0.0232
594.00,0.0252
581.00,0.0321
568.00,0.0539
555.00,0.0776
542.00,0.1237
529.00,0.0885
516.00,0.0441
503.00,0.0296
490.00,0.0222
477.00,0.0197
464.00,0.0181
451.00,0.0168
438.00,0.0158
425.00,0.0146
412.00,0.0146
400.00,0.0136

File: 2025_11_16_Polystyrene_Scan1.csv
Created as New Dataset,Sample 369 By YargerLab Date Friday, November 14 2025
cm-1,A
4000.00,0.0028
3987.00,0.0027
3974.00,0.0028
3961.00,0.0027
3948.00,0.0027
3935.00,0.0028
3922.00,0.0028
3909.00,0.0027
3896.00,0.0027
3883.00,0.0028
3870.00,0.0029
3857.00,0.0029
3844.00,0.0028
3831.00,0.0029
3818.00,0.0030
3805.00,0.0029
3792.00,0.0028
3779.00,0.0027
3766.00,0.0029
3753.00,0.0031
3740.00,0.0029
3727.00,0.0027
3714.00,0.0028
3701.00,0.0028
3688.00,0.0030
3675.00,0.0030
3662.00,0.0029
3649.00,0.0032
3636.00,0.0031
3623.00,0.0035
3610.00,0.0037
3597.00,0.0038
3584.00,0.0040
3571.00,0.0042
3558.00,0.0046
3545.00,0.0049
3532.00,0.0053
3519.00,0.0056
3506.00,0.0058
3493.00,0.0062
3480.00,0.0065
3467.00,0.0068
3454.00,0.0070
3441.00,0.0072
3428.00,0.0074
3415.00,0.0077
3402.00,0.0078
3389.00,0.0081
3376.00,0.0082
3363.00,0.0083
3350.00,0.0086
3337.00,0.0088
3324.00,0.0090
3311.00,0.0092
3298.00,0.0094
3285.00,0.0094
3272.00,0.0092
3259.00,0.0089
3246.00,0.0086
3233.00,0.0083
3220.00,0.0081
3207.00,0.0080
3194.00,0.0078
3181.00,0.0075
3168.00,0.0073
3155.00,0.0069
3142.00,0.0067
3129.00,0.0067
3116.00,0.0070
3103.00,0.0096
3090.00,0.0112
3077.00,0.0145
3064.00,0.0192
3051.00,0.0150
3038.00,0.0157
3025.00,0.0376
3012.00,0.0134
2999.00,0.0131
2986.00,0.0098
2973.00,0.0115
2960.00,0.0163
2947.00,0.0233
2934.00,0.0420
2921.00,0.0579
2908.00,0.0417
2895.00,0.0263
2882.00,0.0195
2869.00,0.0177
2856.00,0.0262
2843.00,0.0215
2830.00,0.0096
2817.00,0.0079
2804.00,0.0073
2791.00,0.0067
2778.00,0.0064
2765.00,0.0061
2752.00,0.0059
2739.00,0.0058
2726.00,0.0057
2713.00,0.0057
2700.00,0.0056
2687.00,0.0055
2674.00,0.0055
2661.00,0.0058
2648.00,0.0059
2635.00,0.0059
2622.00,0.0055
2609.00,0.0054
2596.00,0.0052
2583.00,0.0052
2570.00,0.0048
2557.00,0.0047
2544.00,0.0047
2531.00,0.0047
2518.00,0.0046
2505.00,0.0045
2492.00,0.0045
2479.00,0.0044
2466.00,0.0041
2453.00,0.0041
2440.00,0.0040
2427.00,0.0038
2414.00,0.0037
2401.00,0.0036
2388.00,0.0035
2375.00,0.0037
2362.00,0.0039
2349.00,0.0041
2336.00,0.0045
2323.00,0.0054
2310.00,0.0048
2297.00,0.0045
2284.00,0.0046
2271.00,0.0041
2258.00,0.0040
2245.00,0.0038
2232.00,0.0036
2219.00,0.0035
2206.00,0.0036
2193.00,0.0036
2180.00,0.0032
2167.00,0.0043
2154.00,0.0006
2141.00,0.0016
2128.00,0.0019
2115.00,0.0032
2102.00,0.0032
2089.00,0.0031
2076.00,0.0033
2063.00,0.0030
2050.00,0.0036
2037.00,0.0034
2024.00,0.0022
2011.00,0.0025
1998.00,0.0025
1985.00,0.0039
1972.00,0.0028
1959.00,0.0041
1946.00,0.0067
1933.00,0.0050
1920.00,0.0035
1907.00,0.0035
1894.00,0.0045
1881.00,0.0060
1868.00,0.0066
1855.00,0.0046
1842.00,0.0037
1829.00,0.0043
1816.00,0.0056
1803.00,0.0077
1790.00,0.0062
1777.00,0.0063
1764.00,0.0077
1751.00,0.0144
1738.00,0.0189
1725.00,0.0145
1712.00,0.0127
1699.00,0.0126
1686.00,0.0145
1673.00,0.0177
1660.00,0.0198
1647.00,0.0193
1634.00,0.0178
1621.00,0.0164
1608.00,0.0228
1595.00,0.0263
1582.00,0.0226
1569.00,0.0141
1556.00,0.0151
1543.00,0.0170
1530.00,0.0145
1517.00,0.0133
1504.00,0.0148
1491.00,0.0795
1478.00,0.0167
1465.00,0.0202
1452.00,0.0915
1439.00,0.0398
1426.00,0.0197
1413.00,0.0177
1400.00,0.0171
1387.00,0.0212
1374.00,0.0273
1361.00,0.0252
1348.00,0.0231
1335.00,0.0216
1322.00,0.0228
1309.00,0.0233
1296.00,0.0213
1283.00,0.0210
1270.00,0.0195
1257.00,0.0190
1244.00,0.0200
1231.00,0.0195
1218.00,0.0194
1205.00,0.0212
1192.00,0.0242
1179.00,0.0290
1166.00,0.0229
1153.00,0.0288
1140.00,0.0186
1127.00,0.0179
1114.00,0.0211
1101.00,0.0216
1088.00,0.0237
1075.00,0.0310
1062.00,0.0307
1049.00,0.0245
1036.00,0.0286
1023.00,0.0413
1010.00,0.0261
997.00,0.0216
984.00,0.0222
971.00,0.0215
958.00,0.0206
945.00,0.0196
932.00,0.0165
919.00,0.0177
906.00,0.0335
893.00,0.0164
880.00,0.0136
867.00,0.0126
854.00,0.0132
841.00,0.0200
828.00,0.0130
815.00,0.0125
802.00,0.0135
789.00,0.0195
776.00,0.0401
763.00,0.0969
750.00,0.1262
737.00,0.0574
724.00,0.0216
711.00,0.0361
698.00,0.3217
685.00,0.1215
672.00,0.0600
659.00,0.0401
646.00,0.0300
633.00,0.0314
620.00,0.0354
607.00,0.0299
594.00,0.0318
581.00,0.0376
568.00,0.0560
555.00,0.0762
542.00,0.1154
529.00,0.0855
516.00,0.0469
503.00,0.0345
490.00,0.0290
477.00,0.0270
464.00,0.0247
451.00,0.0231
438.00,0.0239
425.00,0.0213
412.00,0.0200
400.00,0.0192

File: 2025_11_16_Polystyrene_Scan2.csv
Created as New Dataset,Sample 370 By YargerLab Date Sunday, November 16 2025
cm-1,A
4000.00,0.0023
3987.00,0.0022
3974.00,0.0022
3961.00,0.0021
3948.00,0.0022
3935.00,0.0022
3922.00,0.0022
3909.00,0.0022
3896.00,0.0021
3883.00,0.0022
3870.00,0.0022
3857.00,0.0022
3844.00,0.0022
3831.00,0.0022
3818.00,0.0023
3805.00,0.0023
3792.00,0.0021
3779.00,0.0021
3766.00,0.0022
3753.00,0.0024
3740.00,0.0021
3727.00,0.0021
3714.00,0.0021
3701.00,0.0022
3688.00,0.0023
3675.00,0.0024
3662.00,0.0024
3649.00,0.0027
3636.00,0.0027
3623.00,0.0030
3610.00,0.0033
3597.00,0.0035
3584.00,0.0039
3571.00,0.0042
3558.00,0.0047
3545.00,0.0051
3532.00,0.0056
3519.00,0.0060
3506.00,0.0064
3493.00,0.0069
3480.00,0.0074
3467.00,0.0079
3454.00,0.0082
3441.00,0.0085
3428.00,0.0087
3415.00,0.0089
3402.00,0.0092
3389.00,0.0094
3376.00,0.0096
3363.00,0.0097
3350.00,0.0099
3337.00,0.0100
3324.00,0.0101
3311.00,0.0102
3298.00,0.0102
3285.00,0.0102
3272.00,0.0100
3259.00,0.0096
3246.00,0.0092
3233.00,0.0088
3220.00,0.0085
3207.00,0.0083
3194.00,0.0081
3181.00,0.0077
3168.00,0.0075
3155.00,0.0070
3142.00,0.0067
3129.00,0.0066
3116.00,0.0069
3103.00,0.0097
3090.00,0.0116
3077.00,0.0152
3064.00,0.0204
3051.00,0.0156
3038.00,0.0164
3025.00,0.0414
3012.00,0.0137
2999.00,0.0135
2986.00,0.0097
2973.00,0.0118
2960.00,0.0172
2947.00,0.0253
2934.00,0.0467
2921.00,0.0642
2908.00,0.0456
2895.00,0.0281
2882.00,0.0204
2869.00,0.0185
2856.00,0.0281
2843.00,0.0225
2830.00,0.0093
2817.00,0.0074
2804.00,0.0066
2791.00,0.0060
2778.00,0.0057
2765.00,0.0053
2752.00,0.0051
2739.00,0.0050
2726.00,0.0050
2713.00,0.0049
2700.00,0.0048
2687.00,0.0048
2674.00,0.0048
2661.00,0.0050
2648.00,0.0051
2635.00,0.0051
2622.00,0.0047
2609.00,0.0046
2596.00,0.0044
2583.00,0.0043
2570.00,0.0040
2557.00,0.0038
2544.00,0.0038
2531.00,0.0037
2518.00,0.0037
2505.00,0.0036
2492.00,0.0035
2479.00,0.0033
2466.00,0.0031
2453.00,0.0031
2440.00,0.0029
2427.00,0.0028
2414.00,0.0027
2401.00,0.0026
2388.00,0.0025
2375.00,0.0026
2362.00,0.0029
2349.00,0.0031
2336.00,0.0036
2323.00,0.0043
2310.00,0.0037
2297.00,0.0034
2284.00,0.0036
2271.00,0.0030
2258.00,0.0030
2245.00,0.0027
2232.00,0.0026
2219.00,0.0022
2206.00,0.0024
2193.00,0.0026
2180.00,0.0021
2167.00,0.0032
2154.00,-0.0004
2141.00,0.0005
2128.00,0.0007
2115.00,0.0021
2102.00,0.0020
2089.00,0.0018
2076.00,0.0021
2063.00,0.0018
2050.00,0.0022
2037.00,0.0021
2024.00,0.0011
2011.00,0.0012
1998.00,0.0015
1985.00,0.0027
1972.00,0.0016
1959.00,0.0036
1946.00,0.0061
1933.00,0.0041
1920.00,0.0024
1907.00,0.0024
1894.00,0.0036
1881.00,0.0052
1868.00,0.0060
1855.00,0.0035
1842.00,0.0026
1829.00,0.0033
1816.00,0.0049
1803.00,0.0073
1790.00,0.0054
1777.00,0.0054
1764.00,0.0070
1751.00,0.0161
1738.00,0.0228
1725.00,0.0167
1712.00,0.0130
1699.00,0.0121
1686.00,0.0129
1673.00,0.0154
1660.00,0.0167
1647.00,0.0155
1634.00,0.0139
1621.00,0.0128
1608.00,0.0212
1595.00,0.0259
1582.00,0.0223
1569.00,0.0126
1556.00,0.0134
1543.00,0.0149
1530.00,0.0119
1517.00,0.0106
1504.00,0.0130
1491.00,0.0888
1478.00,0.0156
1465.00,0.0192
1452.00,0.1029
1439.00,0.0412
1426.00,0.0177
1413.00,0.0163
1400.00,0.0160
1387.00,0.0210
1374.00,0.0278
1361.00,0.0256
1348.00,0.0235
1335.00,0.0218
1322.00,0.0229
1309.00,0.0233
1296.00,0.0205
1283.00,0.0196
1270.00,0.0180
1257.00,0.0180
1244.00,0.0185
1231.00,0.0178
1218.00,0.0174
1205.00,0.0198
1192.00,0.0228
1179.00,0.0289
1166.00,0.0225
1153.00,0.0291
1140.00,0.0177
1127.00,0.0169
1114.00,0.0205
1101.00,0.0213
1088.00,0.0232
1075.00,0.0314
1062.00,0.0315
1049.00,0.0238
1036.00,0.0285
1023.00,0.0429
1010.00,0.0248
997.00,0.0200
984.00,0.0212
971.00,0.0203
958.00,0.0194
945.00,0.0187
932.00,0.0148
919.00,0.0161
906.00,0.0348
893.00,0.0146
880.00,0.0114
867.00,0.0106
854.00,0.0112
841.00,0.0188
828.00,0.0108
815.00,0.0108
802.00,0.0119
789.00,0.0192
776.00,0.0428
763.00,0.1101
750.00,0.1434
737.00,0.0613
724.00,0.0203
711.00,0.0383
698.00,0.3894
685.00,0.1344
672.00,0.0629
659.00,0.0396
646.00,0.0279
633.00,0.0301
620.00,0.0350
607.00,0.0286
594.00,0.0305
581.00,0.0374
568.00,0.0588
555.00,0.0826
542.00,0.1283
529.00,0.0918
516.00,0.0476
503.00,0.0335
490.00,0.0269
477.00,0.0239
464.00,0.0219
451.00,0.0204
438.00,0.0195
425.00,0.0189
412.00,0.0172
400.00,0.0168

File: 2025_11_16_Polystyrene_Scan3.csv
Created as New Dataset,Sample 371 By YargerLab Date Sunday, November 16 2025
cm-1,A
4000.00,0.0029
3987.00,0.0028
3974.00,0.0028
3961.00,0.0027
3948.00,0.0028
3935.00,0.0028
3922.00,0.0028
3909.00,0.0028
3896.00,0.0027
3883.00,0.0027
3870.00,0.0028
3857.00,0.0029
3844.00,0.0028
3831.00,0.0028
3818.00,0.0030
3805.00,0.0029
3792.00,0.0027
3779.00,0.0027
3766.00,0.0028
3753.00,0.0029
3740.00,0.0027
3727.00,0.0026
3714.00,0.0027
3701.00,0.0027
3688.00,0.0029
3675.00,0.0029
3662.00,0.0029
3649.00,0.0031
3636.00,0.0030
3623.00,0.0032
3610.00,0.0033
3597.00,0.0033
3584.00,0.0035
3571.00,0.0037
3558.00,0.0039
3545.00,0.0041
3532.00,0.0044
3519.00,0.0045
3506.00,0.0047
3493.00,0.0050
3480.00,0.0052
3467.00,0.0054
3454.00,0.0055
3441.00,0.0056
3428.00,0.0057
3415.00,0.0057
3402.00,0.0058
3389.00,0.0058
3376.00,0.0059
3363.00,0.0058
3350.00,0.0058
3337.00,0.0058
3324.00,0.0058
3311.00,0.0059
3298.00,0.0058
3285.00,0.0057
3272.00,0.0057
3259.00,0.0056
3246.00,0.0054
3233.00,0.0052
3220.00,0.0051
3207.00,0.0052
3194.00,0.0050
3181.00,0.0049
3168.00,0.0049
3155.00,0.0046
3142.00,0.0045
3129.00,0.0045
3116.00,0.0051
3103.00,0.0084
3090.00,0.0106
3077.00,0.0148
3064.00,0.0212
3051.00,0.0155
3038.00,0.0167
3025.00,0.0458
3012.00,0.0136
2999.00,0.0133
2986.00,0.0088
2973.00,0.0107
2960.00,0.0157
2947.00,0.0244
2934.00,0.0475
2921.00,0.0652
2908.00,0.0467
2895.00,0.0279
2882.00,0.0197
2869.00,0.0174
2856.00,0.0269
2843.00,0.0221
2830.00,0.0084
2817.00,0.0066
2804.00,0.0059
2791.00,0.0054
2778.00,0.0051
2765.00,0.0047
2752.00,0.0046
2739.00,0.0045
2726.00,0.0046
2713.00,0.0045
2700.00,0.0044
2687.00,0.0044
2674.00,0.0044
2661.00,0.0047
2648.00,0.0048
2635.00,0.0048
2622.00,0.0045
2609.00,0.0044
2596.00,0.0042
2583.00,0.0042
2570.00,0.0038
2557.00,0.0036
2544.00,0.0036
2531.00,0.0036
2518.00,0.0035
2505.00,0.0035
2492.00,0.0034
2479.00,0.0033
2466.00,0.0030
2453.00,0.0031
2440.00,0.0029
2427.00,0.0027
2414.00,0.0026
2401.00,0.0026
2388.00,0.0025
2375.00,0.0027
2362.00,0.0030
2349.00,0.0032
2336.00,0.0036
2323.00,0.0045
2310.00,0.0039
2297.00,0.0035
2284.00,0.0036
2271.00,0.0031
2258.00,0.0030
2245.00,0.0028
2232.00,0.0027
2219.00,0.0024
2206.00,0.0024
2193.00,0.0024
2180.00,0.0021
2167.00,0.0032
2154.00,-0.0001
2141.00,0.0004
2128.00,0.0006
2115.00,0.0020
2102.00,0.0021
2089.00,0.0019
2076.00,0.0021
2063.00,0.0018
2050.00,0.0022
2037.00,0.0019
2024.00,0.0010
2011.00,0.0011
1998.00,0.0016
1985.00,0.0029
1972.00,0.0019
1959.00,0.0038
1946.00,0.0068
1933.00,0.0043
1920.00,0.0026
1907.00,0.0024
1894.00,0.0038
1881.00,0.0057
1868.00,0.0064
1855.00,0.0037
1842.00,0.0026
1829.00,0.0034
1816.00,0.0052
1803.00,0.0078
1790.00,0.0054
1777.00,0.0052
1764.00,0.0065
1751.00,0.0142
1738.00,0.0216
1725.00,0.0159
1712.00,0.0105
1699.00,0.0093
1686.00,0.0095
1673.00,0.0106
1660.00,0.0101
1647.00,0.0084
1634.00,0.0072
1621.00,0.0075
1608.00,0.0182
1595.00,0.0236
1582.00,0.0196
1569.00,0.0081
1556.00,0.0080
1543.00,0.0097
1530.00,0.0074
1517.00,0.0067
1504.00,0.0110
1491.00,0.0967
1478.00,0.0140
1465.00,0.0167
1452.00,0.1124
1439.00,0.0413
1426.00,0.0148
1413.00,0.0122
1400.00,0.0117
1387.00,0.0179
1374.00,0.0260
1361.00,0.0236
1348.00,0.0214
1335.00,0.0194
1322.00,0.0207
1309.00,0.0211
1296.00,0.0181
1283.00,0.0171
1270.00,0.0153
1257.00,0.0150
1244.00,0.0152
1231.00,0.0143
1218.00,0.0140
1205.00,0.0164
1192.00,0.0198
1179.00,0.0265
1166.00,0.0193
1153.00,0.0261
1140.00,0.0136
1127.00,0.0129
1114.00,0.0164
1101.00,0.0161
1088.00,0.0180
1075.00,0.0268
1062.00,0.0269
1049.00,0.0181
1036.00,0.0236
1023.00,0.0398
1010.00,0.0209
997.00,0.0165
984.00,0.0187
971.00,0.0183
958.00,0.0175
945.00,0.0173
932.00,0.0129
919.00,0.0146
906.00,0.0352
893.00,0.0128
880.00,0.0098
867.00,0.0087
854.00,0.0094
841.00,0.0179
828.00,0.0087
815.00,0.0087
802.00,0.0098
789.00,0.0177
776.00,0.0437
763.00,0.1182
750.00,0.1548
737.00,0.0627
724.00,0.0176
711.00,0.0378
698.00,0.4385
685.00,0.1395
672.00,0.0620
659.00,0.0372
646.00,0.0246
633.00,0.0266
620.00,0.0321
607.00,0.0250
594.00,0.0273
581.00,0.0349
568.00,0.0582
555.00,0.0841
542.00,0.1343
529.00,0.0930
516.00,0.0456
503.00,0.0304
490.00,0.0239
477.00,0.0210
464.00,0.0191
451.00,0.0178
438.00,0.0166
425.00,0.0157
412.00,0.0154
400.00,0.0156

File: 2025_12_02_Polystyrene_Standard_Scan1.csv
Created as New Dataset,Sample 384 By YargerLab Date Tuesday, December 02 2025
cm-1,A
4000.00,0.0005
3987.00,0.0006
3974.00,0.0005
3961.00,0.0005
3948.00,0.0005
3935.00,0.0005
3922.00,0.0005
3909.00,0.0005
3896.00,0.0004
3883.00,0.0004
3870.00,0.0005
3857.00,0.0006
3844.00,0.0006
3831.00,0.0005
3818.00,0.0005
3805.00,0.0006
3792.00,0.0005
3779.00,0.0005
3766.00,0.0005
3753.00,0.0006
3740.00,0.0005
3727.00,0.0005
3714.00,0.0005
3701.00,0.0004
3688.00,0.0004
3675.00,0.0006
3662.00,0.0005
3649.00,0.0005
3636.00,0.0005
3623.00,0.0006
3610.00,0.0005
3597.00,0.0007
3584.00,0.0007
3571.00,0.0009
3558.00,0.0009
3545.00,0.0010
3532.00,0.0011
3519.00,0.0012
3506.00,0.0013
3493.00,0.0014
3480.00,0.0016
3467.00,0.0016
3454.00,0.0017
3441.00,0.0017
3428.00,0.0018
3415.00,0.0018
3402.00,0.0019
3389.00,0.0018
3376.00,0.0019
3363.00,0.0019
3350.00,0.0020
3337.00,0.0020
3324.00,0.0021
3311.00,0.0021
3298.00,0.0021
3285.00,0.0021
3272.00,0.0020
3259.00,0.0020
3246.00,0.0020
3233.00,0.0019
3220.00,0.0019
3207.00,0.0020
3194.00,0.0018
3181.00,0.0018
3168.00,0.0018
3155.00,0.0018
3142.00,0.0017
3129.00,0.0017
3116.00,0.0019
3103.00,0.0028
3090.00,0.0033
3077.00,0.0046
3064.00,0.0059
3051.00,0.0048
3038.00,0.0049
3025.00,0.0123
3012.00,0.0043
2999.00,0.0041
2986.00,0.0027
2973.00,0.0033
2960.00,0.0046
2947.00,0.0069
2934.00,0.0126
2921.00,0.0173
2908.00,0.0130
2895.00,0.0080
2882.00,0.0058
2869.00,0.0050
2856.00,0.0075
2843.00,0.0065
2830.00,0.0025
2817.00,0.0019
2804.00,0.0018
2791.00,0.0016
2778.00,0.0015
2765.00,0.0014
2752.00,0.0013
2739.00,0.0013
2726.00,0.0013
2713.00,0.0013
2700.00,0.0013
2687.00,0.0012
2674.00,0.0012
2661.00,0.0015
2648.00,0.0016
2635.00,0.0016
2622.00,0.0014
2609.00,0.0013
2596.00,0.0012
2583.00,0.0012
2570.00,0.0011
2557.00,0.0010
2544.00,0.0010
2531.00,0.0008
2518.00,0.0008
2505.00,0.0008
2492.00,0.0007
2479.00,0.0007
2466.00,0.0006
2453.00,0.0008
2440.00,0.0007
2427.00,0.0005
2414.00,0.0005
2401.00,0.0004
2388.00,0.0003
2375.00,0.0003
2362.00,0.0005
2349.00,0.0006
2336.00,0.0009
2323.00,0.0015
2310.00,0.0011
2297.00,0.0010
2284.00,0.0013
2271.00,0.0009
2258.00,0.0007
2245.00,0.0007
2232.00,0.0005
2219.00,0.0004
2206.00,0.0005
2193.00,0.0008
2180.00,-0.0000
2167.00,0.0015
2154.00,-0.0013
2141.00,-0.0009
2128.00,-0.0007
2115.00,0.0002
2102.00,0.0002
2089.00,0.0003
2076.00,0.0004
2063.00,0.0005
2050.00,0.0010
2037.00,0.0007
2024.00,-0.0003
2011.00,-0.0023
1998.00,-0.0002
1985.00,0.0007
1972.00,-0.0002
1959.00,0.0002
1946.00,0.0013
1933.00,0.0007
1920.00,0.0002
1907.00,0.0001
1894.00,0.0005
1881.00,0.0011
1868.00,0.0014
1855.00,0.0007
1842.00,0.0004
1829.00,0.0006
1816.00,0.0010
1803.00,0.0019
1790.00,0.0014
1777.00,0.0015
1764.00,0.0020
1751.00,0.0043
1738.00,0.0057
1725.00,0.0045
1712.00,0.0038
1699.00,0.0037
1686.00,0.0047
1673.00,0.0053
1660.00,0.0054
1647.00,0.0049
1634.00,0.0042
1621.00,0.0041
1608.00,0.0064
1595.00,0.0079
1582.00,0.0063
1569.00,0.0029
1556.00,0.0029
1543.00,0.0037
1530.00,0.0032
1517.00,0.0031
1504.00,0.0038
1491.00,0.0271
1478.00,0.0048
1465.00,0.0056
1452.00,0.0292
1439.00,0.0125
1426.00,0.0053
1413.00,0.0048
1400.00,0.0049
1387.00,0.0064
1374.00,0.0085
1361.00,0.0081
1348.00,0.0073
1335.00,0.0068
1322.00,0.0073
1309.00,0.0072
1296.00,0.0064
1283.00,0.0060
1270.00,0.0054
1257.00,0.0051
1244.00,0.0054
1231.00,0.0055
1218.00,0.0055
1205.00,0.0062
1192.00,0.0072
1179.00,0.0089
1166.00,0.0067
1153.00,0.0089
1140.00,0.0052
1127.00,0.0048
1114.00,0.0059
1101.00,0.0061
1088.00,0.0070
1075.00,0.0095
1062.00,0.0095
1049.00,0.0070
1036.00,0.0084
1023.00,0.0130
1010.00,0.0077
997.00,0.0064
984.00,0.0069
971.00,0.0068
958.00,0.0065
945.00,0.0063
932.00,0.0050
919.00,0.0055
906.00,0.0114
893.00,0.0049
880.00,0.0038
867.00,0.0034
854.00,0.0038
841.00,0.0062
828.00,0.0036
815.00,0.0033
802.00,0.0036
789.00,0.0059
776.00,0.0136
763.00,0.0333
750.00,0.0424
737.00,0.0191
724.00,0.0061
711.00,0.0121
698.00,0.0977
685.00,0.0415
672.00,0.0194
659.00,0.0119
646.00,0.0080
633.00,0.0085
620.00,0.0101
607.00,0.0080
594.00,0.0090
581.00,0.0112
568.00,0.0179
555.00,0.0249
542.00,0.0384
529.00,0.0289
516.00,0.0153
503.00,0.0107
490.00,0.0085
477.00,0.0076
464.00,0.0073
451.00,0.0066
438.00,0.0068
425.00,0.0053
412.00,0.0069
400.00,0.0044

File: 2025_12_02_Polystyrene_Standard_Scan2.csv
Created as New Dataset,Sample 385 By YargerLab Date Tuesday, December 02 2025
cm-1,A
4000.00,0.0008
3987.00,0.0008
3974.00,0.0007
3961.00,0.0008
3948.00,0.0008
3935.00,0.0007
3922.00,0.0007
3909.00,0.0006
3896.00,0.0006
3883.00,0.0006
3870.00,0.0006
3857.00,0.0006
3844.00,0.0007
3831.00,0.0006
3818.00,0.0006
3805.00,0.0006
3792.00,0.0007
3779.00,0.0007
3766.00,0.0007
3753.00,0.0007
3740.00,0.0006
3727.00,0.0006
3714.00,0.0006
3701.00,0.0006
3688.00,0.0006
3675.00,0.0007
3662.00,0.0007
3649.00,0.0007
3636.00,0.0007
3623.00,0.0007
3610.00,0.0006
3597.00,0.0008
3584.00,0.0009
3571.00,0.0010
3558.00,0.0012
3545.00,0.0012
3532.00,0.0013
3519.00,0.0014
3506.00,0.0016
3493.00,0.0017
3480.00,0.0018
3467.00,0.0019
3454.00,0.0019
3441.00,0.0020
3428.00,0.0020
3415.00,0.0021
3402.00,0.0021
3389.00,0.0021
3376.00,0.0022
3363.00,0.0022
3350.00,0.0023
3337.00,0.0023
3324.00,0.0024
3311.00,0.0024
3298.00,0.0023
3285.00,0.0023
3272.00,0.0023
3259.00,0.0022
3246.00,0.0022
3233.00,0.0021
3220.00,0.0021
3207.00,0.0021
3194.00,0.0020
3181.00,0.0020
3168.00,0.0020
3155.00,0.0019
3142.00,0.0019
3129.00,0.0019
3116.00,0.0021
3103.00,0.0031
3090.00,0.0037
3077.00,0.0051
3064.00,0.0067
3051.00,0.0053
3038.00,0.0055
3025.00,0.0140
3012.00,0.0047
2999.00,0.0045
2986.00,0.0029
2973.00,0.0035
2960.00,0.0047
2947.00,0.0072
2934.00,0.0133
2921.00,0.0184
2908.00,0.0140
2895.00,0.0086
2882.00,0.0062
2869.00,0.0052
2856.00,0.0076
2843.00,0.0069
2830.00,0.0027
2817.00,0.0021
2804.00,0.0019
2791.00,0.0017
2778.00,0.0016
2765.00,0.0015
2752.00,0.0015
2739.00,0.0015
2726.00,0.0015
2713.00,0.0014
2700.00,0.0014
2687.00,0.0014
2674.00,0.0014
2661.00,0.0016
2648.00,0.0017
2635.00,0.0017
2622.00,0.0016
2609.00,0.0015
2596.00,0.0014
2583.00,0.0012
2570.00,0.0012
2557.00,0.0011
2544.00,0.0010
2531.00,0.0010
2518.00,0.0010
2505.00,0.0010
2492.00,0.0008
2479.00,0.0008
2466.00,0.0008
2453.00,0.0008
2440.00,0.0008
2427.00,0.0005
2414.00,0.0006
2401.00,0.0005
2388.00,0.0004
2375.00,0.0004
2362.00,0.0006
2349.00,0.0007
2336.00,0.0009
2323.00,0.0016
2310.00,0.0012
2297.00,0.0011
2284.00,0.0013
2271.00,0.0009
2258.00,0.0009
2245.00,0.0007
2232.00,0.0006
2219.00,0.0004
2206.00,0.0007
2193.00,0.0008
2180.00,-0.0000
2167.00,0.0015
2154.00,-0.0015
2141.00,-0.0006
2128.00,-0.0008
2115.00,0.0004
2102.00,0.0002
2089.00,0.0002
2076.00,0.0006
2063.00,0.0003
2050.00,0.0011
2037.00,0.0006
2024.00,-0.0003
2011.00,-0.0021
1998.00,-0.0002
1985.00,0.0008
1972.00,0.0001
1959.00,0.0003
1946.00,0.0013
1933.00,0.0009
1920.00,0.0003
1907.00,0.0002
1894.00,0.0006
1881.00,0.0012
1868.00,0.0016
1855.00,0.0008
1842.00,0.0005
1829.00,0.0007
1816.00,0.0012
1803.00,0.0022
1790.00,0.0016
1777.00,0.0017
1764.00,0.0022
1751.00,0.0043
1738.00,0.0057
1725.00,0.0047
1712.00,0.0040
1699.00,0.0040
1686.00,0.0052
1673.00,0.0060
1660.00,0.0061
1647.00,0.0054
1634.00,0.0045
1621.00,0.0044
1608.00,0.0072
1595.00,0.0089
1582.00,0.0071
1569.00,0.0033
1556.00,0.0033
1543.00,0.0041
1530.00,0.0035
1517.00,0.0032
1504.00,0.0042
1491.00,0.0317
1478.00,0.0052
1465.00,0.0061
1452.00,0.0347
1439.00,0.0145
1426.00,0.0061
1413.00,0.0053
1400.00,0.0053
1387.00,0.0071
1374.00,0.0096
1361.00,0.0091
1348.00,0.0082
1335.00,0.0076
1322.00,0.0081
1309.00,0.0080
1296.00,0.0070
1283.00,0.0067
1270.00,0.0059
1257.00,0.0055
1244.00,0.0058
1231.00,0.0059
1218.00,0.0059
1205.00,0.0068
1192.00,0.0079
1179.00,0.0098
1166.00,0.0071
1153.00,0.0099
1140.00,0.0056
1127.00,0.0053
1114.00,0.0067
1101.00,0.0070
1088.00,0.0080
1075.00,0.0112
1062.00,0.0110
1049.00,0.0081
1036.00,0.0100
1023.00,0.0154
1010.00,0.0090
997.00,0.0073
984.00,0.0081
971.00,0.0079
958.00,0.0074
945.00,0.0072
932.00,0.0057
919.00,0.0063
906.00,0.0134
893.00,0.0056
880.00,0.0043
867.00,0.0038
854.00,0.0044
841.00,0.0072
828.00,0.0040
815.00,0.0037
802.00,0.0043
789.00,0.0071
776.00,0.0165
763.00,0.0412
750.00,0.0529
737.00,0.0234
724.00,0.0073
711.00,0.0149
698.00,0.1279
685.00,0.0525
672.00,0.0243
659.00,0.0150
646.00,0.0098
633.00,0.0107
620.00,0.0128
607.00,0.0101
594.00,0.0111
581.00,0.0138
568.00,0.0224
555.00,0.0318
542.00,0.0493
529.00,0.0364
516.00,0.0192
503.00,0.0132
490.00,0.0108
477.00,0.0096
464.00,0.0088
451.00,0.0091
438.00,0.0076
425.00,0.0069
412.00,0.0079
400.00,0.0062