Folder: Data/FTIR/Mary (part 7)

File: 2025_12_02_Polystyrene_Standard_Scan3.csv
Created as New Dataset,Sample 386 By YargerLab Date Tuesday, December 02 2025
cm-1,A
4000.00,0.0009
3987.00,0.0010
3974.00,0.0009
3961.00,0.0010
3948.00,0.0009
3935.00,0.0009
3922.00,0.0009
3909.00,0.0008
3896.00,0.0008
3883.00,0.0009
3870.00,0.0008
3857.00,0.0009
3844.00,0.0009
3831.00,0.0008
3818.00,0.0009
3805.00,0.0009
3792.00,0.0009
3779.00,0.0009
3766.00,0.0009
3753.00,0.0010
3740.00,0.0008
3727.00,0.0008
3714.00,0.0009
3701.00,0.0008
3688.00,0.0008
3675.00,0.0009
3662.00,0.0008
3649.00,0.0009
3636.00,0.0009
3623.00,0.0009
3610.00,0.0010
3597.00,0.0011
3584.00,0.0012
3571.00,0.0013
3558.00,0.0013
3545.00,0.0014
3532.00,0.0016
3519.00,0.0017
3506.00,0.0019
3493.00,0.0019
3480.00,0.0021
3467.00,0.0021
3454.00,0.0022
3441.00,0.0023
3428.00,0.0023
3415.00,0.0023
3402.00,0.0024
3389.00,0.0024
3376.00,0.0025
3363.00,0.0025
3350.00,0.0026
3337.00,0.0026
3324.00,0.0027
3311.00,0.0027
3298.00,0.0027
3285.00,0.0027
3272.00,0.0026
3259.00,0.0026
3246.00,0.0025
3233.00,0.0024
3220.00,0.0024
3207.00,0.0024
3194.00,0.0023
3181.00,0.0022
3168.00,0.0022
3155.00,0.0021
3142.00,0.0021
3129.00,0.0021
3116.00,0.0023
3103.00,0.0032
3090.00,0.0038
3077.00,0.0052
3064.00,0.0067
3051.00,0.0054
3038.00,0.0056
3025.00,0.0139
3012.00,0.0048
2999.00,0.0045
2986.00,0.0030
2973.00,0.0037
2960.00,0.0050
2947.00,0.0076
2934.00,0.0136
2921.00,0.0189
2908.00,0.0142
2895.00,0.0087
2882.00,0.0064
2869.00,0.0055
2856.00,0.0080
2843.00,0.0071
2830.00,0.0029
2817.00,0.0022
2804.00,0.0020
2791.00,0.0018
2778.00,0.0017
2765.00,0.0017
2752.00,0.0016
2739.00,0.0016
2726.00,0.0016
2713.00,0.0015
2700.00,0.0016
2687.00,0.0015
2674.00,0.0015
2661.00,0.0018
2648.00,0.0019
2635.00,0.0019
2622.00,0.0017
2609.00,0.0016
2596.00,0.0016
2583.00,0.0014
2570.00,0.0014
2557.00,0.0013
2544.00,0.0012
2531.00,0.0012
2518.00,0.0012
2505.00,0.0012
2492.00,0.0010
2479.00,0.0010
2466.00,0.0010
2453.00,0.0011
2440.00,0.0009
2427.00,0.0008
2414.00,0.0008
2401.00,0.0006
2388.00,0.0006
2375.00,0.0006
2362.00,0.0007
2349.00,0.0008
2336.00,0.0011
2323.00,0.0017
2310.00,0.0011
2297.00,0.0011
2284.00,0.0016
2271.00,0.0011
2258.00,0.0010
2245.00,0.0009
2232.00,0.0010
2219.00,0.0006
2206.00,0.0010
2193.00,0.0010
2180.00,0.0004
2167.00,0.0015
2154.00,-0.0014
2141.00,-0.0006
2128.00,-0.0005
2115.00,0.0005
2102.00,0.0004
2089.00,0.0006
2076.00,0.0008
2063.00,0.0006
2050.00,0.0013
2037.00,0.0009
2024.00,-0.0000
2011.00,-0.0017
1998.00,0.0000
1985.00,0.0011
1972.00,0.0003
1959.00,0.0007
1946.00,0.0017
1933.00,0.0010
1920.00,0.0006
1907.00,0.0005
1894.00,0.0008
1881.00,0.0016
1868.00,0.0018
1855.00,0.0010
1842.00,0.0006
1829.00,0.0009
1816.00,0.0013
1803.00,0.0023
1790.00,0.0018
1777.00,0.0019
1764.00,0.0024
1751.00,0.0048
1738.00,0.0063
1725.00,0.0051
1712.00,0.0044
1699.00,0.0044
1686.00,0.0054
1673.00,0.0063
1660.00,0.0066
1647.00,0.0062
1634.00,0.0051
1621.00,0.0046
1608.00,0.0071
1595.00,0.0088
1582.00,0.0072
1569.00,0.0039
1556.00,0.0041
1543.00,0.0050
1530.00,0.0042
1517.00,0.0038
1504.00,0.0046
1491.00,0.0300
1478.00,0.0053
1465.00,0.0062
1452.00,0.0325
1439.00,0.0139
1426.00,0.0061
1413.00,0.0055
1400.00,0.0056
1387.00,0.0072
1374.00,0.0094
1361.00,0.0089
1348.00,0.0081
1335.00,0.0075
1322.00,0.0079
1309.00,0.0079
1296.00,0.0071
1283.00,0.0068
1270.00,0.0062
1257.00,0.0058
1244.00,0.0060
1231.00,0.0060
1218.00,0.0060
1205.00,0.0068
1192.00,0.0080
1179.00,0.0098
1166.00,0.0074
1153.00,0.0099
1140.00,0.0059
1127.00,0.0056
1114.00,0.0067
1101.00,0.0069
1088.00,0.0077
1075.00,0.0105
1062.00,0.0103
1049.00,0.0077
1036.00,0.0094
1023.00,0.0145
1010.00,0.0085
997.00,0.0070
984.00,0.0077
971.00,0.0074
958.00,0.0071
945.00,0.0069
932.00,0.0055
919.00,0.0061
906.00,0.0125
893.00,0.0055
880.00,0.0042
867.00,0.0038
854.00,0.0042
841.00,0.0067
828.00,0.0040
815.00,0.0037
802.00,0.0041
789.00,0.0066
776.00,0.0150
763.00,0.0364
750.00,0.0464
737.00,0.0210
724.00,0.0068
711.00,0.0134
698.00,0.1060
685.00,0.0456
672.00,0.0212
659.00,0.0134
646.00,0.0089
633.00,0.0097
620.00,0.0114
607.00,0.0092
594.00,0.0100
581.00,0.0123
568.00,0.0199
555.00,0.0274
542.00,0.0420
529.00,0.0316
516.00,0.0167
503.00,0.0121
490.00,0.0097
477.00,0.0091
464.00,0.0080
451.00,0.0077
438.00,0.0068
425.00,0.0054
412.00,0.0061
400.00,0.0054

File: 2025_12_04_Polystyrene_Standard_Scan1.csv
Created as New Dataset,Sample 391 By YargerLab Date Tuesday, December 02 2025
cm-1,A
4000.00,0.0005
3987.00,0.0005
3974.00,0.0005
3961.00,0.0005
3948.00,0.0005
3935.00,0.0005
3922.00,0.0005
3909.00,0.0004
3896.00,0.0005
3883.00,0.0005
3870.00,0.0005
3857.00,0.0006
3844.00,0.0005
3831.00,0.0005
3818.00,0.0007
3805.00,0.0006
3792.00,0.0005
3779.00,0.0005
3766.00,0.0005
3753.00,0.0006
3740.00,0.0006
3727.00,0.0005
3714.00,0.0005
3701.00,0.0005
3688.00,0.0005
3675.00,0.0005
3662.00,0.0005
3649.00,0.0007
3636.00,0.0005
3623.00,0.0007
3610.00,0.0007
3597.00,0.0008
3584.00,0.0008
3571.00,0.0009
3558.00,0.0011
3545.00,0.0012
3532.00,0.0013
3519.00,0.0014
3506.00,0.0015
3493.00,0.0016
3480.00,0.0017
3467.00,0.0018
3454.00,0.0020
3441.00,0.0020
3428.00,0.0021
3415.00,0.0022
3402.00,0.0022
3389.00,0.0023
3376.00,0.0024
3363.00,0.0025
3350.00,0.0026
3337.00,0.0027
3324.00,0.0027
3311.00,0.0029
3298.00,0.0029
3285.00,0.0029
3272.00,0.0029
3259.00,0.0027
3246.00,0.0026
3233.00,0.0025
3220.00,0.0024
3207.00,0.0024
3194.00,0.0023
3181.00,0.0022
3168.00,0.0022
3155.00,0.0021
3142.00,0.0020
3129.00,0.0020
3116.00,0.0021
3103.00,0.0030
3090.00,0.0034
3077.00,0.0047
3064.00,0.0059
3051.00,0.0049
3038.00,0.0050
3025.00,0.0119
3012.00,0.0042
2999.00,0.0041
2986.00,0.0029
2973.00,0.0036
2960.00,0.0052
2947.00,0.0074
2934.00,0.0132
2921.00,0.0183
2908.00,0.0134
2895.00,0.0084
2882.00,0.0061
2869.00,0.0054
2856.00,0.0081
2843.00,0.0067
2830.00,0.0027
2817.00,0.0021
2804.00,0.0019
2791.00,0.0017
2778.00,0.0016
2765.00,0.0015
2752.00,0.0014
2739.00,0.0014
2726.00,0.0014
2713.00,0.0014
2700.00,0.0014
2687.00,0.0014
2674.00,0.0014
2661.00,0.0016
2648.00,0.0017
2635.00,0.0017
2622.00,0.0016
2609.00,0.0015
2596.00,0.0014
2583.00,0.0013
2570.00,0.0012
2557.00,0.0011
2544.00,0.0010
2531.00,0.0010
2518.00,0.0010
2505.00,0.0010
2492.00,0.0009
2479.00,0.0008
2466.00,0.0009
2453.00,0.0009
2440.00,0.0008
2427.00,0.0006
2414.00,0.0007
2401.00,0.0005
2388.00,0.0004
2375.00,0.0005
2362.00,0.0006
2349.00,0.0007
2336.00,0.0009
2323.00,0.0016
2310.00,0.0011
2297.00,0.0010
2284.00,0.0014
2271.00,0.0010
2258.00,0.0010
2245.00,0.0008
2232.00,0.0008
2219.00,0.0009
2206.00,0.0007
2193.00,0.0009
2180.00,0.0003
2167.00,0.0014
2154.00,-0.0010
2141.00,-0.0003
2128.00,-0.0005
2115.00,0.0007
2102.00,0.0005
2089.00,0.0003
2076.00,0.0007
2063.00,0.0004
2050.00,0.0010
2037.00,0.0005
2024.00,-0.0002
2011.00,0.0003
1998.00,0.0001
1985.00,0.0008
1972.00,-0.0001
1959.00,0.0000
1946.00,0.0013
1933.00,0.0006
1920.00,0.0003
1907.00,0.0003
1894.00,0.0007
1881.00,0.0013
1868.00,0.0013
1855.00,0.0007
1842.00,0.0004
1829.00,0.0007
1816.00,0.0011
1803.00,0.0019
1790.00,0.0015
1777.00,0.0015
1764.00,0.0021
1751.00,0.0045
1738.00,0.0062
1725.00,0.0049
1712.00,0.0041
1699.00,0.0043
1686.00,0.0056
1673.00,0.0068
1660.00,0.0074
1647.00,0.0068
1634.00,0.0059
1621.00,0.0054
1608.00,0.0073
1595.00,0.0088
1582.00,0.0075
1569.00,0.0047
1556.00,0.0051
1543.00,0.0057
1530.00,0.0049
1517.00,0.0044
1504.00,0.0047
1491.00,0.0269
1478.00,0.0053
1465.00,0.0066
1452.00,0.0296
1439.00,0.0132
1426.00,0.0064
1413.00,0.0059
1400.00,0.0059
1387.00,0.0074
1374.00,0.0093
1361.00,0.0088
1348.00,0.0080
1335.00,0.0075
1322.00,0.0078
1309.00,0.0079
1296.00,0.0071
1283.00,0.0068
1270.00,0.0063
1257.00,0.0062
1244.00,0.0065
1231.00,0.0064
1218.00,0.0064
1205.00,0.0070
1192.00,0.0081
1179.00,0.0099
1166.00,0.0078
1153.00,0.0101
1140.00,0.0064
1127.00,0.0062
1114.00,0.0074
1101.00,0.0076
1088.00,0.0083
1075.00,0.0109
1062.00,0.0108
1049.00,0.0084
1036.00,0.0098
1023.00,0.0144
1010.00,0.0089
997.00,0.0074
984.00,0.0078
971.00,0.0075
958.00,0.0071
945.00,0.0067
932.00,0.0054
919.00,0.0059
906.00,0.0116
893.00,0.0054
880.00,0.0041
867.00,0.0038
854.00,0.0041
841.00,0.0065
828.00,0.0039
815.00,0.0038
802.00,0.0043
789.00,0.0064
776.00,0.0139
763.00,0.0336
750.00,0.0426
737.00,0.0196
724.00,0.0069
711.00,0.0126
698.00,0.1002
685.00,0.0421
672.00,0.0200
659.00,0.0129
646.00,0.0089
633.00,0.0096
620.00,0.0111
607.00,0.0090
594.00,0.0098
581.00,0.0119
568.00,0.0187
555.00,0.0260
542.00,0.0399
529.00,0.0296
516.00,0.0159
503.00,0.0111
490.00,0.0095
477.00,0.0088
464.00,0.0082
451.00,0.0073
438.00,0.0068
425.00,0.0057
412.00,0.0054
400.00,0.0034

File: 2025_12_04_Polystyrene_Standard_Scan2.csv
Created as New Dataset,Sample 392 By YargerLab Date Thursday, December 04 2025
cm-1,A
4000.00,0.0003
3987.00,0.0003
3974.00,0.0003
3961.00,0.0003
3948.00,0.0003
3935.00,0.0003
3922.00,0.0003
3909.00,0.0003
3896.00,0.0002
3883.00,0.0003
3870.00,0.0003
3857.00,0.0003
3844.00,0.0002
3831.00,0.0003
3818.00,0.0004
3805.00,0.0004
3792.00,0.0003
3779.00,0.0003
3766.00,0.0002
3753.00,0.0005
3740.00,0.0004
3727.00,0.0002
3714.00,0.0003
3701.00,0.0003
3688.00,0.0003
3675.00,0.0003
3662.00,0.0003
3649.00,0.0004
3636.00,0.0002
3623.00,0.0003
3610.00,0.0004
3597.00,0.0005
3584.00,0.0005
3571.00,0.0005
3558.00,0.0007
3545.00,0.0008
3532.00,0.0009
3519.00,0.0010
3506.00,0.0011
3493.00,0.0012
3480.00,0.0012
3467.00,0.0013
3454.00,0.0014
3441.00,0.0015
3428.00,0.0015
3415.00,0.0015
3402.00,0.0016
3389.00,0.0016
3376.00,0.0016
3363.00,0.0017
3350.00,0.0017
3337.00,0.0018
3324.00,0.0017
3311.00,0.0018
3298.00,0.0018
3285.00,0.0018
3272.00,0.0018
3259.00,0.0017
3246.00,0.0017
3233.00,0.0016
3220.00,0.0015
3207.00,0.0015
3194.00,0.0014
3181.00,0.0014
3168.00,0.0014
3155.00,0.0014
3142.00,0.0013
3129.00,0.0013
3116.00,0.0015
3103.00,0.0024
3090.00,0.0030
3077.00,0.0043
3064.00,0.0058
3051.00,0.0045
3038.00,0.0047
3025.00,0.0125
3012.00,0.0039
2999.00,0.0038
2986.00,0.0023
2973.00,0.0029
2960.00,0.0044
2947.00,0.0069
2934.00,0.0130
2921.00,0.0180
2908.00,0.0130
2895.00,0.0078
2882.00,0.0055
2869.00,0.0047
2856.00,0.0073
2843.00,0.0062
2830.00,0.0021
2817.00,0.0016
2804.00,0.0014
2791.00,0.0012
2778.00,0.0012
2765.00,0.0010
2752.00,0.0010
2739.00,0.0010
2726.00,0.0009
2713.00,0.0010
2700.00,0.0010
2687.00,0.0009
2674.00,0.0009
2661.00,0.0011
2648.00,0.0013
2635.00,0.0012
2622.00,0.0012
2609.00,0.0011
2596.00,0.0010
2583.00,0.0010
2570.00,0.0009
2557.00,0.0007
2544.00,0.0008
2531.00,0.0007
2518.00,0.0006
2505.00,0.0006
2492.00,0.0005
2479.00,0.0005
2466.00,0.0004
2453.00,0.0005
2440.00,0.0005
2427.00,0.0004
2414.00,0.0003
2401.00,0.0002
2388.00,0.0001
2375.00,0.0001
2362.00,0.0003
2349.00,0.0002
2336.00,0.0006
2323.00,0.0013
2310.00,0.0007
2297.00,0.0007
2284.00,0.0011
2271.00,0.0008
2258.00,0.0005
2245.00,0.0005
2232.00,0.0005
2219.00,0.0004
2206.00,0.0003
2193.00,0.0006
2180.00,0.0004
2167.00,0.0010
2154.00,-0.0013
2141.00,-0.0008
2128.00,-0.0008
2115.00,0.0002
2102.00,0.0002
2089.00,-0.0000
2076.00,0.0004
2063.00,-0.0001
2050.00,0.0008
2037.00,0.0006
2024.00,-0.0002
2011.00,0.0000
1998.00,-0.0002
1985.00,0.0008
1972.00,-0.0003
1959.00,-0.0001
1946.00,0.0013
1933.00,0.0004
1920.00,0.0001
1907.00,0.0001
1894.00,0.0005
1881.00,0.0011
1868.00,0.0012
1855.00,0.0005
1842.00,0.0001
1829.00,0.0004
1816.00,0.0008
1803.00,0.0018
1790.00,0.0013
1777.00,0.0014
1764.00,0.0020
1751.00,0.0043
1738.00,0.0058
1725.00,0.0045
1712.00,0.0036
1699.00,0.0037
1686.00,0.0044
1673.00,0.0052
1660.00,0.0054
1647.00,0.0047
1634.00,0.0040
1621.00,0.0036
1608.00,0.0061
1595.00,0.0078
1582.00,0.0064
1569.00,0.0031
1556.00,0.0033
1543.00,0.0039
1530.00,0.0031
1517.00,0.0027
1504.00,0.0037
1491.00,0.0281
1478.00,0.0044
1465.00,0.0053
1452.00,0.0310
1439.00,0.0126
1426.00,0.0051
1413.00,0.0046
1400.00,0.0045
1387.00,0.0061
1374.00,0.0084
1361.00,0.0078
1348.00,0.0072
1335.00,0.0065
1322.00,0.0070
1309.00,0.0070
1296.00,0.0063
1283.00,0.0060
1270.00,0.0054
1257.00,0.0052
1244.00,0.0054
1231.00,0.0053
1218.00,0.0054
1205.00,0.0062
1192.00,0.0074
1179.00,0.0092
1166.00,0.0068
1153.00,0.0093
1140.00,0.0054
1127.00,0.0051
1114.00,0.0064
1101.00,0.0064
1088.00,0.0072
1075.00,0.0100
1062.00,0.0097
1049.00,0.0071
1036.00,0.0087
1023.00,0.0138
1010.00,0.0080
997.00,0.0066
984.00,0.0071
971.00,0.0070
958.00,0.0067
945.00,0.0064
932.00,0.0049
919.00,0.0055
906.00,0.0120
893.00,0.0049
880.00,0.0037
867.00,0.0033
854.00,0.0035
841.00,0.0062
828.00,0.0033
815.00,0.0031
802.00,0.0036
789.00,0.0061
776.00,0.0145
763.00,0.0363
750.00,0.0464
737.00,0.0204
724.00,0.0065
711.00,0.0130
698.00,0.1117
685.00,0.0459
672.00,0.0209
659.00,0.0129
646.00,0.0084
633.00,0.0092
620.00,0.0112
607.00,0.0086
594.00,0.0096
581.00,0.0120
568.00,0.0198
555.00,0.0281
542.00,0.0439
529.00,0.0323
516.00,0.0165
503.00,0.0115
490.00,0.0096
477.00,0.0079
464.00,0.0078
451.00,0.0075
438.00,0.0067
425.00,0.0064
412.00,0.0058
400.00,0.0058

File: 2025_12_04_Polystyrene_Standard_Scan3.csv
Created as New Dataset,Sample 393 By YargerLab Date Thursday, December 04 2025
cm-1,A
4000.00,0.0003
3987.00,0.0002
3974.00,0.0002
3961.00,0.0002
3948.00,0.0002
3935.00,0.0002
3922.00,0.0002
3909.00,0.0002
3896.00,0.0002
3883.00,0.0002
3870.00,0.0002
3857.00,0.0003
3844.00,0.0002
3831.00,0.0003
3818.00,0.0004
3805.00,0.0004
3792.00,0.0003
3779.00,0.0002
3766.00,0.0002
3753.00,0.0004
3740.00,0.0003
3727.00,0.0002
3714.00,0.0002
3701.00,0.0002
3688.00,0.0003
3675.00,0.0002
3662.00,0.0002
3649.00,0.0003
3636.00,0.0002
3623.00,0.0003
3610.00,0.0003
3597.00,0.0003
3584.00,0.0005
3571.00,0.0004
3558.00,0.0006
3545.00,0.0007
3532.00,0.0008
3519.00,0.0009
3506.00,0.0009
3493.00,0.0011
3480.00,0.0011
3467.00,0.0012
3454.00,0.0012
3441.00,0.0013
3428.00,0.0013
3415.00,0.0013
3402.00,0.0014
3389.00,0.0014
3376.00,0.0014
3363.00,0.0015
3350.00,0.0016
3337.00,0.0015
3324.00,0.0015
3311.00,0.0016
3298.00,0.0015
3285.00,0.0015
3272.00,0.0015
3259.00,0.0014
3246.00,0.0014
3233.00,0.0013
3220.00,0.0012
3207.00,0.0013
3194.00,0.0012
3181.00,0.0011
3168.00,0.0011
3155.00,0.0011
3142.00,0.0010
3129.00,0.0010
3116.00,0.0012
3103.00,0.0023
3090.00,0.0029
3077.00,0.0043
3064.00,0.0060
3051.00,0.0045
3038.00,0.0048
3025.00,0.0135
3012.00,0.0038
2999.00,0.0037
2986.00,0.0022
2973.00,0.0029
2960.00,0.0045
2947.00,0.0072
2934.00,0.0139
2921.00,0.0195
2908.00,0.0141
2895.00,0.0083
2882.00,0.0057
2869.00,0.0050
2856.00,0.0079
2843.00,0.0066
2830.00,0.0021
2817.00,0.0015
2804.00,0.0013
2791.00,0.0011
2778.00,0.0011
2765.00,0.0010
2752.00,0.0009
2739.00,0.0009
2726.00,0.0008
2713.00,0.0009
2700.00,0.0009
2687.00,0.0009
2674.00,0.0008
2661.00,0.0011
2648.00,0.0013
2635.00,0.0012
2622.00,0.0011
2609.00,0.0010
2596.00,0.0009
2583.00,0.0009
2570.00,0.0008
2557.00,0.0007
2544.00,0.0007
2531.00,0.0006
2518.00,0.0006
2505.00,0.0006
2492.00,0.0005
2479.00,0.0004
2466.00,0.0004
2453.00,0.0005
2440.00,0.0004
2427.00,0.0003
2414.00,0.0003
2401.00,0.0001
2388.00,0.0000
2375.00,0.0001
2362.00,0.0003
2349.00,0.0003
2336.00,0.0006
2323.00,0.0013
2310.00,0.0008
2297.00,0.0007
2284.00,0.0010
2271.00,0.0006
2258.00,0.0006
2245.00,0.0006
2232.00,0.0004
2219.00,0.0006
2206.00,0.0004
2193.00,0.0006
2180.00,0.0002
2167.00,0.0012
2154.00,-0.0015
2141.00,-0.0008
2128.00,-0.0009
2115.00,0.0001
2102.00,0.0001
2089.00,0.0000
2076.00,0.0003
2063.00,0.0001
2050.00,0.0009
2037.00,0.0001
2024.00,-0.0004
2011.00,-0.0001
1998.00,-0.0004
1985.00,0.0006
1972.00,-0.0003
1959.00,0.0000
1946.00,0.0013
1933.00,0.0006
1920.00,0.0001
1907.00,0.0000
1894.00,0.0004
1881.00,0.0012
1868.00,0.0012
1855.00,0.0005
1842.00,0.0001
1829.00,0.0004
1816.00,0.0009
1803.00,0.0019
1790.00,0.0013
1777.00,0.0015
1764.00,0.0021
1751.00,0.0047
1738.00,0.0065
1725.00,0.0049
1712.00,0.0038
1699.00,0.0036
1686.00,0.0040
1673.00,0.0046
1660.00,0.0047
1647.00,0.0041
1634.00,0.0034
1621.00,0.0031
1608.00,0.0060
1595.00,0.0079
1582.00,0.0064
1569.00,0.0029
1556.00,0.0030
1543.00,0.0035
1530.00,0.0028
1517.00,0.0024
1504.00,0.0035
1491.00,0.0297
1478.00,0.0043
1465.00,0.0054
1452.00,0.0329
1439.00,0.0131
1426.00,0.0050
1413.00,0.0044
1400.00,0.0043
1387.00,0.0060
1374.00,0.0085
1361.00,0.0079
1348.00,0.0071
1335.00,0.0065
1322.00,0.0070
1309.00,0.0071
1296.00,0.0063
1283.00,0.0061
1270.00,0.0055
1257.00,0.0052
1244.00,0.0055
1231.00,0.0053
1218.00,0.0054
1205.00,0.0063
1192.00,0.0076
1179.00,0.0097
1166.00,0.0071
1153.00,0.0097
1140.00,0.0055
1127.00,0.0052
1114.00,0.0065
1101.00,0.0067
1088.00,0.0074
1075.00,0.0103
1062.00,0.0100
1049.00,0.0071
1036.00,0.0089
1023.00,0.0142
1010.00,0.0081
997.00,0.0066
984.00,0.0073
971.00,0.0071
958.00,0.0068
945.00,0.0065
932.00,0.0050
919.00,0.0057
906.00,0.0123
893.00,0.0049
880.00,0.0037
867.00,0.0032
854.00,0.0034
841.00,0.0061
828.00,0.0032
815.00,0.0030
802.00,0.0035
789.00,0.0061
776.00,0.0146
763.00,0.0369
750.00,0.0469
737.00,0.0204
724.00,0.0061
711.00,0.0127
698.00,0.1089
685.00,0.0442
672.00,0.0199
659.00,0.0121
646.00,0.0078
633.00,0.0085
620.00,0.0102
607.00,0.0080
594.00,0.0088
581.00,0.0111
568.00,0.0188
555.00,0.0270
542.00,0.0419
529.00,0.0305
516.00,0.0151
503.00,0.0101
490.00,0.0084
477.00,0.0076
464.00,0.0067
451.00,0.0067
438.00,0.0057
425.00,0.0052
412.00,0.0047
400.00,0.0053