Folder: Data/FTIR/Mary

Note: FTIR/README
YargerLab FT-IR Data Repo

File: 2024_07_27_HIFaFilm_Unstretched_2.csv
Created as New Dataset,Sample 285 By YargerLab Date Saturday, July 27 2024
cm-1,A
4000.00,-0.0001
3987.00,-0.0001
3974.00,-0.0001
3961.00,-0.0001
3948.00,-0.0001
3935.00,-0.0001
3922.00,-0.0001
3909.00,-0.0001
3896.00,-0.0001
3883.00,-0.0001
3870.00,-0.0001
3857.00,-0.0000
3844.00,-0.0001
3831.00,-0.0002
3818.00,-0.0001
3805.00,-0.0001
3792.00,-0.0002
3779.00,-0.0002
3766.00,-0.0001
3753.00,-0.0000
3740.00,-0.0000
3727.00,-0.0001
3714.00,-0.0000
3701.00,-0.0001
3688.00,0.0000
3675.00,0.0002
3662.00,0.0002
3649.00,0.0005
3636.00,0.0006
3623.00,0.0008
3610.00,0.0011
3597.00,0.0013
3584.00,0.0015
3571.00,0.0018
3558.00,0.0020
3545.00,0.0023
3532.00,0.0026
3519.00,0.0028
3506.00,0.0031
3493.00,0.0033
3480.00,0.0036
3467.00,0.0038
3454.00,0.0041
3441.00,0.0043
3428.00,0.0046
3415.00,0.0049
3402.00,0.0051
3389.00,0.0053
3376.00,0.0056
3363.00,0.0060
3350.00,0.0064
3337.00,0.0069
3324.00,0.0075
3311.00,0.0083
3298.00,0.0093
3285.00,0.0101
3272.00,0.0106
3259.00,0.0101
3246.00,0.0093
3233.00,0.0085
3220.00,0.0079
3207.00,0.0075
3194.00,0.0070
3181.00,0.0066
3168.00,0.0061
3155.00,0.0057
3142.00,0.0055
3129.00,0.0052
3116.00,0.0051
3103.00,0.0051
3090.00,0.0052
3077.00,0.0052
3064.00,0.0051
3051.00,0.0048
3038.00,0.0044
3025.00,0.0041
3012.00,0.0038
2999.00,0.0037
2986.00,0.0041
2973.00,0.0048
2960.00,0.0052
2947.00,0.0048
2934.00,0.0052
2921.00,0.0051
2908.00,0.0044
2895.00,0.0039
2882.00,0.0039
2869.00,0.0038
2856.00,0.0034
2843.00,0.0029
2830.00,0.0026
2817.00,0.0025
2804.00,0.0024
2791.00,0.0023
2778.00,0.0021
2765.00,0.0019
2752.00,0.0018
2739.00,0.0017
2726.00,0.0015
2713.00,0.0014
2700.00,0.0014
2687.00,0.0013
2674.00,0.0012
2661.00,0.0011
2648.00,0.0010
2635.00,0.0009
2622.00,0.0009
2609.00,0.0009
2596.00,0.0008
2583.00,0.0008
2570.00,0.0007
2557.00,0.0007
2544.00,0.0006
2531.00,0.0006
2518.00,0.0006
2505.00,0.0006
2492.00,0.0005
2479.00,0.0004
2466.00,0.0004
2453.00,0.0004
2440.00,0.0003
2427.00,0.0003
2414.00,0.0002
2401.00,0.0002
2388.00,0.0002
2375.00,0.0002
2362.00,0.0002
2349.00,0.0002
2336.00,0.0001
2323.00,0.0000
2310.00,0.0001
2297.00,0.0000
2284.00,0.0001
2271.00,0.0001
2258.00,0.0001
2245.00,0.0000
2232.00,0.0002
2219.00,0.0002
2206.00,0.0001
2193.00,0.0001
2180.00,0.0002
2167.00,0.0003
2154.00,0.0003
2141.00,0.0002
2128.00,0.0000
2115.00,0.0001
2102.00,0.0001
2089.00,0.0001
2076.00,-0.0000
2063.00,0.0001
2050.00,-0.0001
2037.00,0.0001
2024.00,0.0000
2011.00,-0.0002
1998.00,0.0000
1985.00,-0.0001
1972.00,-0.0001
1959.00,0.0000
1946.00,-0.0001
1933.00,-0.0001
1920.00,-0.0003
1907.00,-0.0001
1894.00,-0.0002
1881.00,-0.0002
1868.00,-0.0002
1855.00,-0.0002
1842.00,-0.0003
1829.00,-0.0002
1816.00,-0.0003
1803.00,-0.0003
1790.00,-0.0001
1777.00,-0.0002
1764.00,-0.0001
1751.00,0.0002
1738.00,0.0008
1725.00,0.0011
1712.00,0.0019
1699.00,0.0061
1686.00,0.0085
1673.00,0.0117
1660.00,0.0150
1647.00,0.0175
1634.00,0.0188
1621.00,0.0227
1608.00,0.0205
1595.00,0.0147
1582.00,0.0127
1569.00,0.0136
1556.00,0.0161
1543.00,0.0191
1530.00,0.0207
1517.00,0.0209
1504.00,0.0176
1491.00,0.0131
1478.00,0.0101
1465.00,0.0108
1452.00,0.0116
1439.00,0.0111
1426.00,0.0096
1413.00,0.0108
1400.00,0.0119
1387.00,0.0120
1374.00,0.0106
1361.00,0.0091
1348.00,0.0097
1335.00,0.0091
1322.00,0.0088
1309.00,0.0087
1296.00,0.0085
1283.00,0.0088
1270.00,0.0089
1257.00,0.0099
1244.00,0.0112
1231.00,0.0116
1218.00,0.0106
1205.00,0.0085
1192.00,0.0074
1179.00,0.0071
1166.00,0.0079
1153.00,0.0080
1140.00,0.0075
1127.00,0.0080
1114.00,0.0086
1101.00,0.0091
1088.00,0.0104
1075.00,0.0119
1062.00,0.0119
1049.00,0.0110
1036.00,0.0096
1023.00,0.0084
1010.00,0.0066
997.00,0.0054
984.00,0.0051
971.00,0.0056
958.00,0.0052
945.00,0.0050
932.00,0.0051
919.00,0.0045
906.00,0.0042
893.00,0.0042
880.00,0.0042
867.00,0.0041
854.00,0.0046
841.00,0.0051
828.00,0.0062
815.00,0.0065
802.00,0.0071
789.00,0.0083
776.00,0.0094
763.00,0.0101
750.00,0.0108
737.00,0.0115
724.00,0.0132
711.00,0.0154
698.00,0.0173
685.00,0.0176
672.00,0.0181
659.00,0.0185
646.00,0.0190
633.00,0.0197
620.00,0.0205
607.00,0.0206
594.00,0.0209
581.00,0.0214
568.00,0.0220
555.00,0.0229
542.00,0.0240
529.00,0.0249
516.00,0.0255
503.00,0.0262
490.00,0.0271
477.00,0.0279
464.00,0.0284
451.00,0.0281
438.00,0.0265
425.00,0.0253
412.00,0.0262
400.00,0.0249

File: 2024_07_27_HIFaFilm_Unstretched_3.csv
Created as New Dataset,Sample 286 By YargerLab Date Saturday, July 27 2024
cm-1,A
4000.00,0.0005
3987.00,0.0005
3974.00,0.0005
3961.00,0.0005
3948.00,0.0005
3935.00,0.0005
3922.00,0.0005
3909.00,0.0005
3896.00,0.0005
3883.00,0.0005
3870.00,0.0006
3857.00,0.0006
3844.00,0.0005
3831.00,0.0005
3818.00,0.0006
3805.00,0.0005
3792.00,0.0004
3779.00,0.0005
3766.00,0.0005
3753.00,0.0007
3740.00,0.0006
3727.00,0.0005
3714.00,0.0006
3701.00,0.0005
3688.00,0.0007
3675.00,0.0009
3662.00,0.0010
3649.00,0.0014
3636.00,0.0017
3623.00,0.0020
3610.00,0.0024
3597.00,0.0029
3584.00,0.0033
3571.00,0.0039
3558.00,0.0043
3545.00,0.0048
3532.00,0.0053
3519.00,0.0056
3506.00,0.0062
3493.00,0.0066
3480.00,0.0071
3467.00,0.0076
3454.00,0.0080
3441.00,0.0085
3428.00,0.0090
3415.00,0.0095
3402.00,0.0100
3389.00,0.0104
3376.00,0.0109
3363.00,0.0116
3350.00,0.0123
3337.00,0.0133
3324.00,0.0144
3311.00,0.0159
3298.00,0.0176
3285.00,0.0191
3272.00,0.0199
3259.00,0.0190
3246.00,0.0174
3233.00,0.0160
3220.00,0.0149
3207.00,0.0141
3194.00,0.0132
3181.00,0.0124
3168.00,0.0116
3155.00,0.0108
3142.00,0.0103
3129.00,0.0098
3116.00,0.0096
3103.00,0.0097
3090.00,0.0098
3077.00,0.0099
3064.00,0.0096
3051.00,0.0090
3038.00,0.0084
3025.00,0.0078
3012.00,0.0073
2999.00,0.0072
2986.00,0.0079
2973.00,0.0091
2960.00,0.0098
2947.00,0.0091
2934.00,0.0098
2921.00,0.0096
2908.00,0.0082
2895.00,0.0074
2882.00,0.0075
2869.00,0.0074
2856.00,0.0066
2843.00,0.0057
2830.00,0.0052
2817.00,0.0050
2804.00,0.0049
2791.00,0.0046
2778.00,0.0044
2765.00,0.0041
2752.00,0.0038
2739.00,0.0036
2726.00,0.0035
2713.00,0.0033
2700.00,0.0032
2687.00,0.0030
2674.00,0.0029
2661.00,0.0028
2648.00,0.0027
2635.00,0.0026
2622.00,0.0025
2609.00,0.0024
2596.00,0.0023
2583.00,0.0022
2570.00,0.0022
2557.00,0.0021
2544.00,0.0020
2531.00,0.0019
2518.00,0.0018
2505.00,0.0018
2492.00,0.0017
2479.00,0.0016
2466.00,0.0015
2453.00,0.0015
2440.00,0.0014
2427.00,0.0014
2414.00,0.0013
2401.00,0.0012
2388.00,0.0012
2375.00,0.0011
2362.00,0.0011
2349.00,0.0011
2336.00,0.0010
2323.00,0.0010
2310.00,0.0010
2297.00,0.0010
2284.00,0.0011
2271.00,0.0011
2258.00,0.0011
2245.00,0.0009
2232.00,0.0011
2219.00,0.0011
2206.00,0.0011
2193.00,0.0011
2180.00,0.0011
2167.00,0.0011
2154.00,0.0010
2141.00,0.0010
2128.00,0.0009
2115.00,0.0010
2102.00,0.0010
2089.00,0.0010
2076.00,0.0009
2063.00,0.0009
2050.00,0.0008
2037.00,0.0010
2024.00,0.0008
2011.00,0.0008
1998.00,0.0009
1985.00,0.0009
1972.00,0.0008
1959.00,0.0006
1946.00,0.0005
1933.00,0.0006
1920.00,0.0006
1907.00,0.0006
1894.00,0.0005
1881.00,0.0005
1868.00,0.0004
1855.00,0.0005
1842.00,0.0004
1829.00,0.0005
1816.00,0.0005
1803.00,0.0006
1790.00,0.0008
1777.00,0.0008
1764.00,0.0009
1751.00,0.0013
1738.00,0.0020
1725.00,0.0026
1712.00,0.0040
1699.00,0.0102
1686.00,0.0155
1673.00,0.0212
1660.00,0.0270
1647.00,0.0315
1634.00,0.0338
1621.00,0.0401
1608.00,0.0358
1595.00,0.0255
1582.00,0.0219
1569.00,0.0234
1556.00,0.0279
1543.00,0.0333
1530.00,0.0360
1517.00,0.0365
1504.00,0.0311
1491.00,0.0233
1478.00,0.0182
1465.00,0.0194
1452.00,0.0207
1439.00,0.0198
1426.00,0.0172
1413.00,0.0192
1400.00,0.0208
1387.00,0.0209
1374.00,0.0187
1361.00,0.0163
1348.00,0.0171
1335.00,0.0162
1322.00,0.0158
1309.00,0.0157
1296.00,0.0154
1283.00,0.0158
1270.00,0.0160
1257.00,0.0177
1244.00,0.0199
1231.00,0.0205
1218.00,0.0188
1205.00,0.0155
1192.00,0.0136
1179.00,0.0132
1166.00,0.0145
1153.00,0.0146
1140.00,0.0136
1127.00,0.0144
1114.00,0.0152
1101.00,0.0159
1088.00,0.0179
1075.00,0.0206
1062.00,0.0206
1049.00,0.0192
1036.00,0.0170
1023.00,0.0151
1010.00,0.0123
997.00,0.0104
984.00,0.0099
971.00,0.0105
958.00,0.0098
945.00,0.0096
932.00,0.0097
919.00,0.0088
906.00,0.0084
893.00,0.0084
880.00,0.0083
867.00,0.0082
854.00,0.0090
841.00,0.0097
828.00,0.0112
815.00,0.0117
802.00,0.0127
789.00,0.0143
776.00,0.0160
763.00,0.0171
750.00,0.0182
737.00,0.0191
724.00,0.0217
711.00,0.0250
698.00,0.0279
685.00,0.0282
672.00,0.0288
659.00,0.0295
646.00,0.0302
633.00,0.0311
620.00,0.0321
607.00,0.0323
594.00,0.0325
581.00,0.0332
568.00,0.0342
555.00,0.0355
542.00,0.0367
529.00,0.0379
516.00,0.0389
503.00,0.0397
490.00,0.0407
477.00,0.0416
464.00,0.0419
451.00,0.0415
438.00,0.0392
425.00,0.0372
412.00,0.0379
400.00,0.0370

File: 2024_07_27_HIFaFilm_Unstretched_5.csv
Created as New Dataset,Sample 288 By YargerLab Date Saturday, July 27 2024
cm-1,A
4000.00,-0.0005
3987.00,-0.0005
3974.00,-0.0006
3961.00,-0.0006
3948.00,-0.0006
3935.00,-0.0006
3922.00,-0.0006
3909.00,-0.0006
3896.00,-0.0006
3883.00,-0.0007
3870.00,-0.0007
3857.00,-0.0007
3844.00,-0.0006
3831.00,-0.0007
3818.00,-0.0007
3805.00,-0.0006
3792.00,-0.0006
3779.00,-0.0006
3766.00,-0.0006
3753.00,-0.0006
3740.00,-0.0006
3727.00,-0.0006
3714.00,-0.0006
3701.00,-0.0005
3688.00,-0.0005
3675.00,-0.0004
3662.00,-0.0002
3649.00,-0.0001
3636.00,0.0001
3623.00,0.0003
3610.00,0.0005
3597.00,0.0008
3584.00,0.0010
3571.00,0.0013
3558.00,0.0016
3545.00,0.0018
3532.00,0.0021
3519.00,0.0023
3506.00,0.0026
3493.00,0.0029
3480.00,0.0031
3467.00,0.0034
3454.00,0.0036
3441.00,0.0039
3428.00,0.0041
3415.00,0.0044
3402.00,0.0046
3389.00,0.0049
3376.00,0.0051
3363.00,0.0055
3350.00,0.0059
3337.00,0.0063
3324.00,0.0070
3311.00,0.0077
3298.00,0.0086
3285.00,0.0094
3272.00,0.0098
3259.00,0.0092
3246.00,0.0084
3233.00,0.0078
3220.00,0.0072
3207.00,0.0068
3194.00,0.0063
3181.00,0.0059
3168.00,0.0054
3155.00,0.0050
3142.00,0.0047
3129.00,0.0045
3116.00,0.0044
3103.00,0.0044
3090.00,0.0045
3077.00,0.0045
3064.00,0.0044
3051.00,0.0041
3038.00,0.0037
3025.00,0.0034
3012.00,0.0031
2999.00,0.0031
2986.00,0.0034
2973.00,0.0041
2960.00,0.0044
2947.00,0.0040
2934.00,0.0044
2921.00,0.0042
2908.00,0.0035
2895.00,0.0031
2882.00,0.0031
2869.00,0.0030
2856.00,0.0026
2843.00,0.0022
2830.00,0.0019
2817.00,0.0018
2804.00,0.0017
2791.00,0.0016
2778.00,0.0015
2765.00,0.0013
2752.00,0.0011
2739.00,0.0010
2726.00,0.0009
2713.00,0.0008
2700.00,0.0007
2687.00,0.0007
2674.00,0.0006
2661.00,0.0005
2648.00,0.0004
2635.00,0.0004
2622.00,0.0003
2609.00,0.0003
2596.00,0.0003
2583.00,0.0002
2570.00,0.0002
2557.00,0.0002
2544.00,0.0001
2531.00,0.0001
2518.00,0.0000
2505.00,0.0000
2492.00,-0.0000
2479.00,-0.0001
2466.00,-0.0001
2453.00,-0.0001
2440.00,-0.0002
2427.00,-0.0002
2414.00,-0.0002
2401.00,-0.0002
2388.00,-0.0003
2375.00,-0.0003
2362.00,-0.0003
2349.00,-0.0003
2336.00,-0.0004
2323.00,-0.0005
2310.00,-0.0004
2297.00,-0.0004
2284.00,-0.0004
2271.00,-0.0004
2258.00,-0.0004
2245.00,-0.0004
2232.00,-0.0004
2219.00,-0.0003
2206.00,-0.0004
2193.00,-0.0004
2180.00,-0.0002
2167.00,-0.0004
2154.00,0.0000
2141.00,-0.0002
2128.00,-0.0004
2115.00,-0.0003
2102.00,-0.0004
2089.00,-0.0004
2076.00,-0.0004
2063.00,-0.0004
2050.00,-0.0005
2037.00,-0.0002
2024.00,-0.0003
2011.00,-0.0003
1998.00,-0.0003
1985.00,-0.0005
1972.00,-0.0004
1959.00,-0.0004
1946.00,-0.0005
1933.00,-0.0005
1920.00,-0.0005
1907.00,-0.0005
1894.00,-0.0005
1881.00,-0.0005
1868.00,-0.0006
1855.00,-0.0005
1842.00,-0.0005
1829.00,-0.0006
1816.00,-0.0005
1803.00,-0.0006
1790.00,-0.0004
1777.00,-0.0005
1764.00,-0.0004
1751.00,-0.0001
1738.00,0.0003
1725.00,0.0007
1712.00,0.0015
1699.00,0.0052
1686.00,0.0078
1673.00,0.0106
1660.00,0.0137
1647.00,0.0160
1634.00,0.0172
1621.00,0.0205
1608.00,0.0182
1595.00,0.0129
1582.00,0.0111
1569.00,0.0118
1556.00,0.0144
1543.00,0.0171
1530.00,0.0186
1517.00,0.0190
1504.00,0.0158
1491.00,0.0117
1478.00,0.0089
1465.00,0.0095
1452.00,0.0103
1439.00,0.0098
1426.00,0.0083
1413.00,0.0094
1400.00,0.0103
1387.00,0.0105
1374.00,0.0092
1361.00,0.0080
1348.00,0.0083
1335.00,0.0078
1322.00,0.0075
1309.00,0.0074
1296.00,0.0072
1283.00,0.0074
1270.00,0.0075
1257.00,0.0085
1244.00,0.0097
1231.00,0.0100
1218.00,0.0090
1205.00,0.0071
1192.00,0.0060
1179.00,0.0058
1166.00,0.0066
1153.00,0.0065
1140.00,0.0061
1127.00,0.0065
1114.00,0.0070
1101.00,0.0074
1088.00,0.0086
1075.00,0.0101
1062.00,0.0101
1049.00,0.0091
1036.00,0.0078
1023.00,0.0067
1010.00,0.0050
997.00,0.0039
984.00,0.0038
971.00,0.0042
958.00,0.0039
945.00,0.0038
932.00,0.0038
919.00,0.0033
906.00,0.0030
893.00,0.0030
880.00,0.0030
867.00,0.0030
854.00,0.0034
841.00,0.0039
828.00,0.0048
815.00,0.0051
802.00,0.0057
789.00,0.0068
776.00,0.0077
763.00,0.0084
750.00,0.0091
737.00,0.0096
724.00,0.0112
711.00,0.0131
698.00,0.0148
685.00,0.0152
672.00,0.0155
659.00,0.0159
646.00,0.0164
633.00,0.0170
620.00,0.0177
607.00,0.0178
594.00,0.0180
581.00,0.0183
568.00,0.0191
555.00,0.0198
542.00,0.0206
529.00,0.0214
516.00,0.0221
503.00,0.0226
490.00,0.0232
477.00,0.0238
464.00,0.0238
451.00,0.0238
438.00,0.0229
425.00,0.0226
412.00,0.0230
400.00,0.0208

File: 2024_07_27_HIFaFilms_Unstretched_1.csv
Created as New Dataset,Sample 284 By YargerLab Date Friday, July 26 2024
cm-1,A
4000.00,-0.0003
3987.00,-0.0003
3974.00,-0.0003
3961.00,-0.0003
3948.00,-0.0003
3935.00,-0.0003
3922.00,-0.0003
3909.00,-0.0003
3896.00,-0.0003
3883.00,-0.0003
3870.00,-0.0003
3857.00,-0.0002
3844.00,-0.0003
3831.00,-0.0004
3818.00,-0.0003
3805.00,-0.0002
3792.00,-0.0004
3779.00,-0.0003
3766.00,-0.0003
3753.00,-0.0002
3740.00,-0.0002
3727.00,-0.0003
3714.00,-0.0002
3701.00,-0.0002
3688.00,-0.0001
3675.00,0.0000
3662.00,0.0001
3649.00,0.0004
3636.00,0.0006
3623.00,0.0009
3610.00,0.0012
3597.00,0.0015
3584.00,0.0018
3571.00,0.0023
3558.00,0.0025
3545.00,0.0029
3532.00,0.0032
3519.00,0.0035
3506.00,0.0039
3493.00,0.0042
3480.00,0.0045
3467.00,0.0048
3454.00,0.0051
3441.00,0.0054
3428.00,0.0058
3415.00,0.0061
3402.00,0.0064
3389.00,0.0066
3376.00,0.0069
3363.00,0.0074
3350.00,0.0078
3337.00,0.0083
3324.00,0.0091
3311.00,0.0100
3298.00,0.0110
3285.00,0.0119
3272.00,0.0124
3259.00,0.0118
3246.00,0.0108
3233.00,0.0100
3220.00,0.0093
3207.00,0.0088
3194.00,0.0083
3181.00,0.0078
3168.00,0.0072
3155.00,0.0067
3142.00,0.0063
3129.00,0.0060
3116.00,0.0059
3103.00,0.0059
3090.00,0.0060
3077.00,0.0060
3064.00,0.0059
3051.00,0.0055
3038.00,0.0050
3025.00,0.0046
3012.00,0.0043
2999.00,0.0042
2986.00,0.0046
2973.00,0.0054
2960.00,0.0058
2947.00,0.0054
2934.00,0.0059
2921.00,0.0057
2908.00,0.0048
2895.00,0.0043
2882.00,0.0043
2869.00,0.0042
2856.00,0.0038
2843.00,0.0032
2830.00,0.0028
2817.00,0.0027
2804.00,0.0026
2791.00,0.0024
2778.00,0.0022
2765.00,0.0020
2752.00,0.0018
2739.00,0.0017
2726.00,0.0016
2713.00,0.0014
2700.00,0.0014
2687.00,0.0013
2674.00,0.0012
2661.00,0.0010
2648.00,0.0009
2635.00,0.0009
2622.00,0.0008
2609.00,0.0008
2596.00,0.0008
2583.00,0.0007
2570.00,0.0007
2557.00,0.0006
2544.00,0.0005
2531.00,0.0005
2518.00,0.0005
2505.00,0.0004
2492.00,0.0003
2479.00,0.0003
2466.00,0.0002
2453.00,0.0002
2440.00,0.0002
2427.00,0.0001
2414.00,0.0001
2401.00,0.0001
2388.00,0.0000
2375.00,0.0000
2362.00,-0.0000
2349.00,-0.0001
2336.00,-0.0001
2323.00,-0.0002
2310.00,-0.0001
2297.00,-0.0001
2284.00,-0.0001
2271.00,-0.0000
2258.00,-0.0000
2245.00,-0.0002
2232.00,-0.0000
2219.00,0.0000
2206.00,-0.0000
2193.00,0.0000
2180.00,0.0000
2167.00,0.0000
2154.00,0.0003
2141.00,-0.0000
2128.00,-0.0000
2115.00,-0.0001
2102.00,-0.0001
2089.00,-0.0000
2076.00,-0.0001
2063.00,-0.0001
2050.00,-0.0003
2037.00,0.0000
2024.00,-0.0001
2011.00,-0.0002
1998.00,-0.0001
1985.00,-0.0003
1972.00,-0.0001
1959.00,-0.0001
1946.00,-0.0002
1933.00,-0.0003
1920.00,-0.0004
1907.00,-0.0002
1894.00,-0.0003
1881.00,-0.0003
1868.00,-0.0003
1855.00,-0.0003
1842.00,-0.0003
1829.00,-0.0002
1816.00,-0.0003
1803.00,-0.0003
1790.00,-0.0002
1777.00,-0.0001
1764.00,-0.0000
1751.00,0.0003
1738.00,0.0010
1725.00,0.0012
1712.00,0.0021
1699.00,0.0066
1686.00,0.0098
1673.00,0.0131
1660.00,0.0167
1647.00,0.0195
1634.00,0.0210
1621.00,0.0249
1608.00,0.0223
1595.00,0.0162
1582.00,0.0141
1569.00,0.0152
1556.00,0.0180
1543.00,0.0212
1530.00,0.0228
1517.00,0.0230
1504.00,0.0192
1491.00,0.0141
1478.00,0.0110
1465.00,0.0118
1452.00,0.0127
1439.00,0.0121
1426.00,0.0105
1413.00,0.0117
1400.00,0.0129
1387.00,0.0130
1374.00,0.0117
1361.00,0.0099
1348.00,0.0106
1335.00,0.0099
1322.00,0.0096
1309.00,0.0094
1296.00,0.0091
1283.00,0.0094
1270.00,0.0095
1257.00,0.0107
1244.00,0.0121
1231.00,0.0124
1218.00,0.0112
1205.00,0.0089
1192.00,0.0077
1179.00,0.0075
1166.00,0.0084
1153.00,0.0084
1140.00,0.0079
1127.00,0.0085
1114.00,0.0092
1101.00,0.0097
1088.00,0.0111
1075.00,0.0128
1062.00,0.0128
1049.00,0.0118
1036.00,0.0103
1023.00,0.0089
1010.00,0.0070
997.00,0.0058
984.00,0.0055
971.00,0.0060
958.00,0.0054
945.00,0.0053
932.00,0.0053
919.00,0.0047
906.00,0.0044
893.00,0.0045
880.00,0.0045
867.00,0.0044
854.00,0.0050
841.00,0.0056
828.00,0.0066
815.00,0.0070
802.00,0.0078
789.00,0.0090
776.00,0.0102
763.00,0.0110
750.00,0.0117
737.00,0.0125
724.00,0.0142
711.00,0.0163
698.00,0.0184
685.00,0.0188
672.00,0.0191
659.00,0.0196
646.00,0.0203
633.00,0.0209
620.00,0.0217
607.00,0.0217
594.00,0.0221
581.00,0.0226
568.00,0.0234
555.00,0.0241
542.00,0.0251
529.00,0.0262
516.00,0.0266
503.00,0.0271
490.00,0.0281
477.00,0.0291
464.00,0.0290
451.00,0.0287
438.00,0.0275
425.00,0.0264
412.00,0.0272
400.00,0.0261

File: 2024_11_01_THCa_powder_Scan1.csv
Created as New Dataset,Sample 024 By YargerLab Date Friday, November 01 2024
cm-1,A
4000.00,0.0075
3987.00,0.0075
3974.00,0.0075
3961.00,0.0075
3948.00,0.0074
3935.00,0.0074
3922.00,0.0074
3909.00,0.0074
3896.00,0.0073
3883.00,0.0073
3870.00,0.0073
3857.00,0.0072
3844.00,0.0072
3831.00,0.0072
3818.00,0.0071
3805.00,0.0070
3792.00,0.0071
3779.00,0.0071
3766.00,0.0070
3753.00,0.0069
3740.00,0.0070
3727.00,0.0071
3714.00,0.0070
3701.00,0.0070
3688.00,0.0068
3675.00,0.0066
3662.00,0.0065
3649.00,0.0065
3636.00,0.0066
3623.00,0.0069
3610.00,0.0069
3597.00,0.0069
3584.00,0.0069
3571.00,0.0068
3558.00,0.0069
3545.00,0.0069
3532.00,0.0071
3519.00,0.0068
3506.00,0.0064
3493.00,0.0069
3480.00,0.0071
3467.00,0.0072
3454.00,0.0073
3441.00,0.0074
3428.00,0.0075
3415.00,0.0075
3402.00,0.0072
3389.00,0.0075
3376.00,0.0083
3363.00,0.0088
3350.00,0.0093
3337.00,0.0098
3324.00,0.0104
3311.00,0.0110
3298.00,0.0116
3285.00,0.0124
3272.00,0.0131
3259.00,0.0145
3246.00,0.0157
3233.00,0.0171
3220.00,0.0191
3207.00,0.0201
3194.00,0.0206
3181.00,0.0214
3168.00,0.0221
3155.00,0.0232
3142.00,0.0248
3129.00,0.0266
3116.00,0.0275
3103.00,0.0294
3090.00,0.0315
3077.00,0.0353
3064.00,0.0379
3051.00,0.0384
3038.00,0.0397
3025.00,0.0408
3012.00,0.0412
2999.00,0.0426
2986.00,0.0517
2973.00,0.0608
2960.00,0.0722
2947.00,0.0717
2934.00,0.0841
2921.00,0.0848
2908.00,0.0742
2895.00,0.0731
2882.00,0.0700
2869.00,0.0725
2856.00,0.0678
2843.00,0.0611
2830.00,0.0625
2817.00,0.0516
2804.00,0.0472
2791.00,0.0440
2778.00,0.0408
2765.00,0.0386
2752.00,0.0378
2739.00,0.0374
2726.00,0.0372
2713.00,0.0355
2700.00,0.0349
2687.00,0.0352
2674.00,0.0350
2661.00,0.0346
2648.00,0.0342
2635.00,0.0334
2622.00,0.0328
2609.00,0.0327
2596.00,0.0325
2583.00,0.0341
2570.00,0.0349
2557.00,0.0343
2544.00,0.0340
2531.00,0.0330
2518.00,0.0325
2505.00,0.0303
2492.00,0.0269
2479.00,0.0245
2466.00,0.0228
2453.00,0.0218
2440.00,0.0204
2427.00,0.0191
2414.00,0.0180
2401.00,0.0170
2388.00,0.0163
2375.00,0.0155
2362.00,0.0158
2349.00,0.0143
2336.00,0.0147
2323.00,0.0139
2310.00,0.0135
2297.00,0.0130
2284.00,0.0124
2271.00,0.0118
2258.00,0.0109
2245.00,0.0106
2232.00,0.0102
2219.00,0.0102
2206.00,0.0102
2193.00,0.0102
2180.00,0.0099
2167.00,0.0098
2154.00,0.0087
2141.00,0.0090
2128.00,0.0093
2115.00,0.0095
2102.00,0.0092
2089.00,0.0092
2076.00,0.0087
2063.00,0.0087
2050.00,0.0086
2037.00,0.0087
2024.00,0.0085
2011.00,0.0080
1998.00,0.0081
1985.00,0.0082
1972.00,0.0081
1959.00,0.0082
1946.00,0.0080
1933.00,0.0084
1920.00,0.0087
1907.00,0.0090
1894.00,0.0090
1881.00,0.0090
1868.00,0.0094
1855.00,0.0094
1842.00,0.0096
1829.00,0.0097
1816.00,0.0094
1803.00,0.0098
1790.00,0.0100
1777.00,0.0101
1764.00,0.0102
1751.00,0.0105
1738.00,0.0103
1725.00,0.0103
1712.00,0.0104
1699.00,0.0116
1686.00,0.0128
1673.00,0.0162
1660.00,0.0208
1647.00,0.0278
1634.00,0.0638
1621.00,0.1662
1608.00,0.2275
1595.00,0.1298
1582.00,0.0813
1569.00,0.1246
1556.00,0.0671
1543.00,0.0390
1530.00,0.0341
1517.00,0.0376
1504.00,0.0454
1491.00,0.0502
1478.00,0.0437
1465.00,0.0894
1452.00,0.0997
1439.00,0.0965
1426.00,0.0711
1413.00,0.0489
1400.00,0.0928
1387.00,0.0806
1374.00,0.1248
1361.00,0.1125
1348.00,0.0698
1335.00,0.0434
1322.00,0.0503
1309.00,0.0481
1296.00,0.0573
1283.00,0.0904
1270.00,0.1583
1257.00,0.2402
1244.00,0.2214
1231.00,0.1499
1218.00,0.0799
1205.00,0.0653
1192.00,0.1724
1179.00,0.1231
1166.00,0.0693
1153.00,0.0493
1140.00,0.0622
1127.00,0.1426
1114.00,0.1468
1101.00,0.0698
1088.00,0.0435
1075.00,0.0853
1062.00,0.0482
1049.00,0.0601
1036.00,0.0684
1023.00,0.0384
1010.00,0.0454
997.00,0.0381
984.00,0.0319
971.00,0.0389
958.00,0.0327
945.00,0.0527
932.00,0.0513
919.00,0.0673
906.00,0.1053
893.00,0.0951
880.00,0.0590
867.00,0.0584
854.00,0.1031
841.00,0.0830
828.00,0.0727
815.00,0.0575
802.00,0.0466
789.00,0.0651
776.00,0.0754
763.00,0.0682
750.00,0.0617
737.00,0.0711
724.00,0.0872
711.00,0.1297
698.00,0.0622
685.00,0.0454
672.00,0.0375
659.00,0.0490
646.00,0.0548
633.00,0.0465
620.00,0.0491
607.00,0.0403
594.00,0.0750
581.00,0.0339
568.00,0.0402
555.00,0.0333
542.00,0.0330
529.00,0.0339
516.00,0.0305
503.00,0.0756
490.00,0.0611
477.00,0.0410
464.00,0.0360
451.00,0.0322
438.00,0.0568
425.00,0.0779
412.00,0.0649
400.00,0.0441

File: 2024_11_01_THCa_powder_Scan2.csv
Created as New Dataset,Sample 025 By YargerLab Date Friday, November 01 2024
cm-1,A
4000.00,0.0064
3987.00,0.0064
3974.00,0.0064
3961.00,0.0064
3948.00,0.0064
3935.00,0.0063
3922.00,0.0063
3909.00,0.0063
3896.00,0.0063
3883.00,0.0063
3870.00,0.0063
3857.00,0.0063
3844.00,0.0062
3831.00,0.0062
3818.00,0.0062
3805.00,0.0061
3792.00,0.0060
3779.00,0.0060
3766.00,0.0060
3753.00,0.0061
3740.00,0.0060
3727.00,0.0060
3714.00,0.0059
3701.00,0.0059
3688.00,0.0058
3675.00,0.0056
3662.00,0.0053
3649.00,0.0054
3636.00,0.0055
3623.00,0.0058
3610.00,0.0059
3597.00,0.0058
3584.00,0.0058
3571.00,0.0058
3558.00,0.0058
3545.00,0.0059
3532.00,0.0059
3519.00,0.0053
3506.00,0.0052
3493.00,0.0058
3480.00,0.0059
3467.00,0.0060
3454.00,0.0060
3441.00,0.0061
3428.00,0.0060
3415.00,0.0060
3402.00,0.0057
3389.00,0.0062
3376.00,0.0073
3363.00,0.0079
3350.00,0.0085
3337.00,0.0091
3324.00,0.0098
3311.00,0.0104
3298.00,0.0111
3285.00,0.0120
3272.00,0.0128
3259.00,0.0143
3246.00,0.0156
3233.00,0.0170
3220.00,0.0191
3207.00,0.0201
3194.00,0.0208
3181.00,0.0216
3168.00,0.0224
3155.00,0.0236
3142.00,0.0253
3129.00,0.0272
3116.00,0.0282
3103.00,0.0303
3090.00,0.0325
3077.00,0.0364
3064.00,0.0391
3051.00,0.0398
3038.00,0.0411
3025.00,0.0422
3012.00,0.0426
2999.00,0.0438
2986.00,0.0533
2973.00,0.0627
2960.00,0.0748
2947.00,0.0747
2934.00,0.0876
2921.00,0.0880
2908.00,0.0770
2895.00,0.0757
2882.00,0.0725
2869.00,0.0755
2856.00,0.0703
2843.00,0.0633
2830.00,0.0646
2817.00,0.0531
2804.00,0.0485
2791.00,0.0451
2778.00,0.0417
2765.00,0.0394
2752.00,0.0385
2739.00,0.0381
2726.00,0.0378
2713.00,0.0361
2700.00,0.0354
2687.00,0.0357
2674.00,0.0355
2661.00,0.0352
2648.00,0.0348
2635.00,0.0339
2622.00,0.0333
2609.00,0.0331
2596.00,0.0329
2583.00,0.0346
2570.00,0.0355
2557.00,0.0349
2544.00,0.0345
2531.00,0.0334
2518.00,0.0329
2505.00,0.0305
2492.00,0.0269
2479.00,0.0243
2466.00,0.0226
2453.00,0.0214
2440.00,0.0200
2427.00,0.0186
2414.00,0.0174
2401.00,0.0164
2388.00,0.0156
2375.00,0.0149
2362.00,0.0142
2349.00,0.0137
2336.00,0.0133
2323.00,0.0128
2310.00,0.0124
2297.00,0.0120
2284.00,0.0115
2271.00,0.0108
2258.00,0.0100
2245.00,0.0097
2232.00,0.0092
2219.00,0.0093
2206.00,0.0094
2193.00,0.0091
2180.00,0.0091
2167.00,0.0088
2154.00,0.0076
2141.00,0.0081
2128.00,0.0083
2115.00,0.0085
2102.00,0.0082
2089.00,0.0082
2076.00,0.0077
2063.00,0.0077
2050.00,0.0078
2037.00,0.0078
2024.00,0.0074
2011.00,0.0068
1998.00,0.0070
1985.00,0.0073
1972.00,0.0072
1959.00,0.0072
1946.00,0.0071
1933.00,0.0074
1920.00,0.0078
1907.00,0.0080
1894.00,0.0081
1881.00,0.0082
1868.00,0.0083
1855.00,0.0087
1842.00,0.0088
1829.00,0.0087
1816.00,0.0086
1803.00,0.0090
1790.00,0.0092
1777.00,0.0093
1764.00,0.0096
1751.00,0.0097
1738.00,0.0097
1725.00,0.0098
1712.00,0.0099
1699.00,0.0113
1686.00,0.0126
1673.00,0.0164
1660.00,0.0218
1647.00,0.0289
1634.00,0.0670
1621.00,0.1717
1608.00,0.2353
1595.00,0.1342
1582.00,0.0830
1569.00,0.1296
1556.00,0.0693
1543.00,0.0389
1530.00,0.0342
1517.00,0.0376
1504.00,0.0464
1491.00,0.0510
1478.00,0.0446
1465.00,0.0924
1452.00,0.1026
1439.00,0.0986
1426.00,0.0729
1413.00,0.0504
1400.00,0.0955
1387.00,0.0828
1374.00,0.1287
1361.00,0.1162
1348.00,0.0716
1335.00,0.0441
1322.00,0.0514
1309.00,0.0489
1296.00,0.0590
1283.00,0.0927
1270.00,0.1622
1257.00,0.2463
1244.00,0.2280
1231.00,0.1545
1218.00,0.0812
1205.00,0.0664
1192.00,0.1778
1179.00,0.1268
1166.00,0.0705
1153.00,0.0495
1140.00,0.0636
1127.00,0.1469
1114.00,0.1506
1101.00,0.0706
1088.00,0.0433
1075.00,0.0867
1062.00,0.0484
1049.00,0.0604
1036.00,0.0689
1023.00,0.0377
1010.00,0.0452
997.00,0.0375
984.00,0.0312
971.00,0.0385
958.00,0.0318
945.00,0.0529
932.00,0.0516
919.00,0.0682
906.00,0.1067
893.00,0.0967
880.00,0.0594
867.00,0.0595
854.00,0.1053
841.00,0.0847
828.00,0.0739
815.00,0.0587
802.00,0.0467
789.00,0.0662
776.00,0.0770
763.00,0.0695
750.00,0.0628
737.00,0.0723
724.00,0.0886
711.00,0.1319
698.00,0.0631
685.00,0.0453
672.00,0.0369
659.00,0.0491
646.00,0.0549
633.00,0.0465
620.00,0.0492
607.00,0.0404
594.00,0.0755
581.00,0.0334
568.00,0.0401
555.00,0.0328
542.00,0.0324
529.00,0.0331
516.00,0.0296
503.00,0.0756
490.00,0.0600
477.00,0.0397
464.00,0.0347
451.00,0.0311
438.00,0.0561
425.00,0.0774
412.00,0.0648
400.00,0.0416