Folder: Data/FTIR/Mary (part 5)

File: 2025_10_03_Polystyrene_Calibration_3.csv
Created as New Dataset,Sample 172 By YargerLab Date Friday, October 03 2025
cm-1,A
4000.00,0.0015
3987.00,0.0014
3974.00,0.0014
3961.00,0.0015
3948.00,0.0015
3935.00,0.0015
3922.00,0.0015
3909.00,0.0015
3896.00,0.0017
3883.00,0.0017
3870.00,0.0019
3857.00,0.0019
3844.00,0.0017
3831.00,0.0017
3818.00,0.0018
3805.00,0.0019
3792.00,0.0015
3779.00,0.0016
3766.00,0.0017
3753.00,0.0020
3740.00,0.0020
3727.00,0.0017
3714.00,0.0017
3701.00,0.0015
3688.00,0.0018
3675.00,0.0019
3662.00,0.0015
3649.00,0.0021
3636.00,0.0015
3623.00,0.0018
3610.00,0.0017
3597.00,0.0016
3584.00,0.0016
3571.00,0.0015
3558.00,0.0016
3545.00,0.0019
3532.00,0.0018
3519.00,0.0020
3506.00,0.0019
3493.00,0.0021
3480.00,0.0022
3467.00,0.0022
3454.00,0.0023
3441.00,0.0023
3428.00,0.0023
3415.00,0.0024
3402.00,0.0024
3389.00,0.0023
3376.00,0.0025
3363.00,0.0025
3350.00,0.0026
3337.00,0.0026
3324.00,0.0025
3311.00,0.0025
3298.00,0.0026
3285.00,0.0026
3272.00,0.0026
3259.00,0.0025
3246.00,0.0024
3233.00,0.0023
3220.00,0.0023
3207.00,0.0024
3194.00,0.0022
3181.00,0.0021
3168.00,0.0022
3155.00,0.0020
3142.00,0.0019
3129.00,0.0021
3116.00,0.0023
3103.00,0.0037
3090.00,0.0049
3077.00,0.0064
3064.00,0.0090
3051.00,0.0068
3038.00,0.0075
3025.00,0.0186
3012.00,0.0064
2999.00,0.0061
2986.00,0.0044
2973.00,0.0052
2960.00,0.0077
2947.00,0.0114
2934.00,0.0214
2921.00,0.0286
2908.00,0.0209
2895.00,0.0131
2882.00,0.0094
2869.00,0.0084
2856.00,0.0130
2843.00,0.0105
2830.00,0.0043
2817.00,0.0034
2804.00,0.0031
2791.00,0.0028
2778.00,0.0027
2765.00,0.0025
2752.00,0.0024
2739.00,0.0024
2726.00,0.0024
2713.00,0.0023
2700.00,0.0023
2687.00,0.0022
2674.00,0.0023
2661.00,0.0027
2648.00,0.0028
2635.00,0.0027
2622.00,0.0026
2609.00,0.0025
2596.00,0.0023
2583.00,0.0023
2570.00,0.0020
2557.00,0.0019
2544.00,0.0019
2531.00,0.0019
2518.00,0.0020
2505.00,0.0018
2492.00,0.0017
2479.00,0.0017
2466.00,0.0017
2453.00,0.0017
2440.00,0.0015
2427.00,0.0015
2414.00,0.0014
2401.00,0.0014
2388.00,0.0012
2375.00,0.0012
2362.00,0.0011
2349.00,0.0015
2336.00,0.0019
2323.00,0.0025
2310.00,0.0021
2297.00,0.0021
2284.00,0.0023
2271.00,0.0021
2258.00,0.0019
2245.00,0.0016
2232.00,0.0019
2219.00,0.0014
2206.00,0.0017
2193.00,0.0021
2180.00,0.0013
2167.00,0.0020
2154.00,-0.0010
2141.00,-0.0004
2128.00,-0.0001
2115.00,0.0014
2102.00,0.0014
2089.00,0.0013
2076.00,0.0014
2063.00,0.0009
2050.00,0.0018
2037.00,0.0014
2024.00,0.0001
2011.00,0.0034
1998.00,0.0011
1985.00,0.0021
1972.00,0.0002
1959.00,0.0012
1946.00,0.0027
1933.00,0.0019
1920.00,0.0014
1907.00,0.0013
1894.00,0.0017
1881.00,0.0024
1868.00,0.0032
1855.00,0.0017
1842.00,0.0015
1829.00,0.0017
1816.00,0.0024
1803.00,0.0036
1790.00,0.0026
1777.00,0.0023
1764.00,0.0029
1751.00,0.0061
1738.00,0.0083
1725.00,0.0062
1712.00,0.0043
1699.00,0.0040
1686.00,0.0045
1673.00,0.0053
1660.00,0.0055
1647.00,0.0051
1634.00,0.0043
1621.00,0.0043
1608.00,0.0090
1595.00,0.0107
1582.00,0.0091
1569.00,0.0041
1556.00,0.0040
1543.00,0.0054
1530.00,0.0040
1517.00,0.0038
1504.00,0.0055
1491.00,0.0402
1478.00,0.0069
1465.00,0.0085
1452.00,0.0464
1439.00,0.0192
1426.00,0.0077
1413.00,0.0061
1400.00,0.0060
1387.00,0.0087
1374.00,0.0125
1361.00,0.0114
1348.00,0.0103
1335.00,0.0097
1322.00,0.0100
1309.00,0.0103
1296.00,0.0090
1283.00,0.0084
1270.00,0.0076
1257.00,0.0072
1244.00,0.0076
1231.00,0.0073
1218.00,0.0072
1205.00,0.0083
1192.00,0.0100
1179.00,0.0127
1166.00,0.0095
1153.00,0.0125
1140.00,0.0068
1127.00,0.0065
1114.00,0.0083
1101.00,0.0076
1088.00,0.0090
1075.00,0.0131
1062.00,0.0131
1049.00,0.0097
1036.00,0.0126
1023.00,0.0191
1010.00,0.0115
997.00,0.0096
984.00,0.0106
971.00,0.0105
958.00,0.0100
945.00,0.0093
932.00,0.0074
919.00,0.0083
906.00,0.0171
893.00,0.0077
880.00,0.0060
867.00,0.0054
854.00,0.0058
841.00,0.0097
828.00,0.0053
815.00,0.0052
802.00,0.0056
789.00,0.0095
776.00,0.0218
763.00,0.0534
750.00,0.0684
737.00,0.0314
724.00,0.0105
711.00,0.0205
698.00,0.1693
685.00,0.0669
672.00,0.0329
659.00,0.0209
646.00,0.0147
633.00,0.0154
620.00,0.0183
607.00,0.0152
594.00,0.0160
581.00,0.0195
568.00,0.0306
555.00,0.0422
542.00,0.0644
529.00,0.0474
516.00,0.0256
503.00,0.0191
490.00,0.0154
477.00,0.0129
464.00,0.0125
451.00,0.0122
438.00,0.0117
425.00,0.0101
412.00,0.0119
400.00,0.0096

File: 2025_10_03_Polystyrene_PostScan_Calibration_1.csv
Created as New Dataset,Sample 180 By YargerLab Date Friday, October 03 2025
cm-1,A
4000.00,0.0013
3987.00,0.0013
3974.00,0.0012
3961.00,0.0012
3948.00,0.0012
3935.00,0.0012
3922.00,0.0012
3909.00,0.0012
3896.00,0.0012
3883.00,0.0011
3870.00,0.0011
3857.00,0.0012
3844.00,0.0011
3831.00,0.0012
3818.00,0.0011
3805.00,0.0013
3792.00,0.0013
3779.00,0.0013
3766.00,0.0012
3753.00,0.0011
3740.00,0.0010
3727.00,0.0011
3714.00,0.0011
3701.00,0.0012
3688.00,0.0011
3675.00,0.0011
3662.00,0.0012
3649.00,0.0011
3636.00,0.0013
3623.00,0.0012
3610.00,0.0012
3597.00,0.0012
3584.00,0.0013
3571.00,0.0014
3558.00,0.0015
3545.00,0.0016
3532.00,0.0017
3519.00,0.0019
3506.00,0.0020
3493.00,0.0021
3480.00,0.0023
3467.00,0.0023
3454.00,0.0024
3441.00,0.0025
3428.00,0.0025
3415.00,0.0026
3402.00,0.0027
3389.00,0.0027
3376.00,0.0028
3363.00,0.0029
3350.00,0.0030
3337.00,0.0031
3324.00,0.0032
3311.00,0.0033
3298.00,0.0034
3285.00,0.0034
3272.00,0.0033
3259.00,0.0032
3246.00,0.0031
3233.00,0.0029
3220.00,0.0029
3207.00,0.0029
3194.00,0.0028
3181.00,0.0026
3168.00,0.0026
3155.00,0.0025
3142.00,0.0024
3129.00,0.0024
3116.00,0.0027
3103.00,0.0041
3090.00,0.0054
3077.00,0.0069
3064.00,0.0096
3051.00,0.0073
3038.00,0.0081
3025.00,0.0192
3012.00,0.0066
2999.00,0.0063
2986.00,0.0045
2973.00,0.0054
2960.00,0.0080
2947.00,0.0117
2934.00,0.0216
2921.00,0.0288
2908.00,0.0207
2895.00,0.0126
2882.00,0.0089
2869.00,0.0080
2856.00,0.0126
2843.00,0.0104
2830.00,0.0044
2817.00,0.0034
2804.00,0.0031
2791.00,0.0029
2778.00,0.0028
2765.00,0.0027
2752.00,0.0025
2739.00,0.0025
2726.00,0.0025
2713.00,0.0024
2700.00,0.0024
2687.00,0.0024
2674.00,0.0024
2661.00,0.0028
2648.00,0.0029
2635.00,0.0029
2622.00,0.0028
2609.00,0.0026
2596.00,0.0026
2583.00,0.0024
2570.00,0.0023
2557.00,0.0021
2544.00,0.0021
2531.00,0.0020
2518.00,0.0020
2505.00,0.0019
2492.00,0.0019
2479.00,0.0018
2466.00,0.0018
2453.00,0.0018
2440.00,0.0017
2427.00,0.0016
2414.00,0.0015
2401.00,0.0014
2388.00,0.0013
2375.00,0.0014
2362.00,0.0015
2349.00,0.0018
2336.00,0.0021
2323.00,0.0031
2310.00,0.0025
2297.00,0.0023
2284.00,0.0026
2271.00,0.0022
2258.00,0.0019
2245.00,0.0017
2232.00,0.0016
2219.00,0.0018
2206.00,0.0018
2193.00,0.0020
2180.00,0.0017
2167.00,0.0027
2154.00,-0.0010
2141.00,-0.0005
2128.00,0.0001
2115.00,0.0014
2102.00,0.0013
2089.00,0.0012
2076.00,0.0012
2063.00,0.0011
2050.00,0.0018
2037.00,0.0013
2024.00,0.0005
2011.00,0.0008
1998.00,0.0006
1985.00,0.0018
1972.00,0.0003
1959.00,0.0016
1946.00,0.0029
1933.00,0.0019
1920.00,0.0012
1907.00,0.0013
1894.00,0.0019
1881.00,0.0026
1868.00,0.0030
1855.00,0.0017
1842.00,0.0013
1829.00,0.0016
1816.00,0.0023
1803.00,0.0035
1790.00,0.0025
1777.00,0.0022
1764.00,0.0028
1751.00,0.0056
1738.00,0.0077
1725.00,0.0060
1712.00,0.0043
1699.00,0.0041
1686.00,0.0053
1673.00,0.0066
1660.00,0.0076
1647.00,0.0074
1634.00,0.0066
1621.00,0.0058
1608.00,0.0101
1595.00,0.0116
1582.00,0.0097
1569.00,0.0051
1556.00,0.0055
1543.00,0.0071
1530.00,0.0062
1517.00,0.0057
1504.00,0.0069
1491.00,0.0395
1478.00,0.0075
1465.00,0.0087
1452.00,0.0452
1439.00,0.0189
1426.00,0.0078
1413.00,0.0067
1400.00,0.0064
1387.00,0.0092
1374.00,0.0126
1361.00,0.0112
1348.00,0.0102
1335.00,0.0098
1322.00,0.0101
1309.00,0.0104
1296.00,0.0091
1283.00,0.0085
1270.00,0.0080
1257.00,0.0078
1244.00,0.0080
1231.00,0.0078
1218.00,0.0078
1205.00,0.0087
1192.00,0.0100
1179.00,0.0125
1166.00,0.0094
1153.00,0.0117
1140.00,0.0062
1127.00,0.0055
1114.00,0.0064
1101.00,0.0069
1088.00,0.0087
1075.00,0.0130
1062.00,0.0125
1049.00,0.0096
1036.00,0.0124
1023.00,0.0185
1010.00,0.0114
997.00,0.0094
984.00,0.0102
971.00,0.0100
958.00,0.0095
945.00,0.0088
932.00,0.0072
919.00,0.0081
906.00,0.0163
893.00,0.0076
880.00,0.0059
867.00,0.0054
854.00,0.0057
841.00,0.0091
828.00,0.0055
815.00,0.0053
802.00,0.0061
789.00,0.0095
776.00,0.0207
763.00,0.0496
750.00,0.0637
737.00,0.0301
724.00,0.0104
711.00,0.0196
698.00,0.1498
685.00,0.0628
672.00,0.0311
659.00,0.0204
646.00,0.0148
633.00,0.0155
620.00,0.0178
607.00,0.0149
594.00,0.0159
581.00,0.0191
568.00,0.0291
555.00,0.0398
542.00,0.0601
529.00,0.0453
516.00,0.0251
503.00,0.0184
490.00,0.0151
477.00,0.0136
464.00,0.0131
451.00,0.0126
438.00,0.0121
425.00,0.0108
412.00,0.0107
400.00,0.0077

File: 2025_10_03_Polystyrene_PostScan_Calibration_2.csv
Created as New Dataset,Sample 181 By YargerLab Date Friday, October 03 2025
cm-1,A
4000.00,0.0014
3987.00,0.0014
3974.00,0.0014
3961.00,0.0013
3948.00,0.0013
3935.00,0.0013
3922.00,0.0014
3909.00,0.0014
3896.00,0.0013
3883.00,0.0013
3870.00,0.0013
3857.00,0.0014
3844.00,0.0013
3831.00,0.0013
3818.00,0.0014
3805.00,0.0014
3792.00,0.0014
3779.00,0.0014
3766.00,0.0013
3753.00,0.0013
3740.00,0.0012
3727.00,0.0012
3714.00,0.0012
3701.00,0.0012
3688.00,0.0012
3675.00,0.0012
3662.00,0.0013
3649.00,0.0013
3636.00,0.0013
3623.00,0.0013
3610.00,0.0012
3597.00,0.0013
3584.00,0.0013
3571.00,0.0015
3558.00,0.0015
3545.00,0.0016
3532.00,0.0017
3519.00,0.0019
3506.00,0.0019
3493.00,0.0021
3480.00,0.0022
3467.00,0.0023
3454.00,0.0023
3441.00,0.0025
3428.00,0.0025
3415.00,0.0025
3402.00,0.0027
3389.00,0.0026
3376.00,0.0028
3363.00,0.0028
3350.00,0.0029
3337.00,0.0030
3324.00,0.0031
3311.00,0.0032
3298.00,0.0033
3285.00,0.0033
3272.00,0.0032
3259.00,0.0031
3246.00,0.0030
3233.00,0.0028
3220.00,0.0028
3207.00,0.0029
3194.00,0.0027
3181.00,0.0026
3168.00,0.0026
3155.00,0.0025
3142.00,0.0023
3129.00,0.0024
3116.00,0.0027
3103.00,0.0041
3090.00,0.0055
3077.00,0.0070
3064.00,0.0098
3051.00,0.0074
3038.00,0.0082
3025.00,0.0196
3012.00,0.0067
2999.00,0.0064
2986.00,0.0045
2973.00,0.0054
2960.00,0.0080
2947.00,0.0117
2934.00,0.0215
2921.00,0.0284
2908.00,0.0207
2895.00,0.0126
2882.00,0.0088
2869.00,0.0079
2856.00,0.0122
2843.00,0.0102
2830.00,0.0043
2817.00,0.0034
2804.00,0.0031
2791.00,0.0029
2778.00,0.0028
2765.00,0.0026
2752.00,0.0025
2739.00,0.0024
2726.00,0.0025
2713.00,0.0025
2700.00,0.0024
2687.00,0.0024
2674.00,0.0025
2661.00,0.0028
2648.00,0.0029
2635.00,0.0029
2622.00,0.0027
2609.00,0.0026
2596.00,0.0025
2583.00,0.0024
2570.00,0.0023
2557.00,0.0021
2544.00,0.0022
2531.00,0.0020
2518.00,0.0021
2505.00,0.0019
2492.00,0.0020
2479.00,0.0019
2466.00,0.0018
2453.00,0.0018
2440.00,0.0018
2427.00,0.0015
2414.00,0.0015
2401.00,0.0014
2388.00,0.0013
2375.00,0.0012
2362.00,0.0012
2349.00,0.0014
2336.00,0.0018
2323.00,0.0028
2310.00,0.0021
2297.00,0.0022
2284.00,0.0025
2271.00,0.0021
2258.00,0.0020
2245.00,0.0018
2232.00,0.0016
2219.00,0.0015
2206.00,0.0017
2193.00,0.0019
2180.00,0.0014
2167.00,0.0027
2154.00,-0.0009
2141.00,-0.0002
2128.00,0.0001
2115.00,0.0013
2102.00,0.0013
2089.00,0.0014
2076.00,0.0012
2063.00,0.0010
2050.00,0.0017
2037.00,0.0013
2024.00,0.0005
2011.00,0.0011
1998.00,0.0006
1985.00,0.0018
1972.00,0.0003
1959.00,0.0015
1946.00,0.0031
1933.00,0.0019
1920.00,0.0010
1907.00,0.0012
1894.00,0.0018
1881.00,0.0027
1868.00,0.0030
1855.00,0.0016
1842.00,0.0013
1829.00,0.0016
1816.00,0.0023
1803.00,0.0035
1790.00,0.0024
1777.00,0.0022
1764.00,0.0026
1751.00,0.0051
1738.00,0.0073
1725.00,0.0057
1712.00,0.0041
1699.00,0.0040
1686.00,0.0050
1673.00,0.0062
1660.00,0.0071
1647.00,0.0071
1634.00,0.0063
1621.00,0.0057
1608.00,0.0101
1595.00,0.0116
1582.00,0.0097
1569.00,0.0049
1556.00,0.0052
1543.00,0.0068
1530.00,0.0060
1517.00,0.0056
1504.00,0.0069
1491.00,0.0405
1478.00,0.0074
1465.00,0.0084
1452.00,0.0463
1439.00,0.0190
1426.00,0.0076
1413.00,0.0064
1400.00,0.0062
1387.00,0.0091
1374.00,0.0128
1361.00,0.0113
1348.00,0.0101
1335.00,0.0097
1322.00,0.0100
1309.00,0.0102
1296.00,0.0089
1283.00,0.0082
1270.00,0.0078
1257.00,0.0076
1244.00,0.0077
1231.00,0.0076
1218.00,0.0076
1205.00,0.0086
1192.00,0.0099
1179.00,0.0123
1166.00,0.0091
1153.00,0.0116
1140.00,0.0059
1127.00,0.0053
1114.00,0.0061
1101.00,0.0066
1088.00,0.0083
1075.00,0.0129
1062.00,0.0125
1049.00,0.0095
1036.00,0.0123
1023.00,0.0185
1010.00,0.0113
997.00,0.0093
984.00,0.0101
971.00,0.0099
958.00,0.0094
945.00,0.0088
932.00,0.0071
919.00,0.0081
906.00,0.0165
893.00,0.0075
880.00,0.0058
867.00,0.0053
854.00,0.0056
841.00,0.0090
828.00,0.0053
815.00,0.0052
802.00,0.0059
789.00,0.0095
776.00,0.0211
763.00,0.0511
750.00,0.0654
737.00,0.0304
724.00,0.0103
711.00,0.0199
698.00,0.1560
685.00,0.0638
672.00,0.0312
659.00,0.0203
646.00,0.0146
633.00,0.0156
620.00,0.0178
607.00,0.0147
594.00,0.0159
581.00,0.0193
568.00,0.0294
555.00,0.0406
542.00,0.0615
529.00,0.0459
516.00,0.0253
503.00,0.0183
490.00,0.0149
477.00,0.0135
464.00,0.0130
451.00,0.0114
438.00,0.0109
425.00,0.0101
412.00,0.0105
400.00,0.0087

File: 2025_10_03_Polystyrene_PostScan_Calibration_3.csv
Created as New Dataset,Sample 182 By YargerLab Date Friday, October 03 2025
cm-1,A
4000.00,0.0017
3987.00,0.0017
3974.00,0.0017
3961.00,0.0017
3948.00,0.0016
3935.00,0.0017
3922.00,0.0017
3909.00,0.0018
3896.00,0.0016
3883.00,0.0016
3870.00,0.0016
3857.00,0.0018
3844.00,0.0016
3831.00,0.0016
3818.00,0.0017
3805.00,0.0017
3792.00,0.0017
3779.00,0.0017
3766.00,0.0016
3753.00,0.0016
3740.00,0.0015
3727.00,0.0016
3714.00,0.0015
3701.00,0.0016
3688.00,0.0015
3675.00,0.0015
3662.00,0.0017
3649.00,0.0015
3636.00,0.0016
3623.00,0.0016
3610.00,0.0016
3597.00,0.0016
3584.00,0.0017
3571.00,0.0018
3558.00,0.0019
3545.00,0.0019
3532.00,0.0020
3519.00,0.0022
3506.00,0.0022
3493.00,0.0024
3480.00,0.0025
3467.00,0.0025
3454.00,0.0027
3441.00,0.0028
3428.00,0.0028
3415.00,0.0028
3402.00,0.0030
3389.00,0.0030
3376.00,0.0031
3363.00,0.0031
3350.00,0.0032
3337.00,0.0033
3324.00,0.0035
3311.00,0.0036
3298.00,0.0035
3285.00,0.0036
3272.00,0.0036
3259.00,0.0034
3246.00,0.0033
3233.00,0.0031
3220.00,0.0031
3207.00,0.0032
3194.00,0.0030
3181.00,0.0029
3168.00,0.0029
3155.00,0.0028
3142.00,0.0027
3129.00,0.0027
3116.00,0.0030
3103.00,0.0045
3090.00,0.0058
3077.00,0.0074
3064.00,0.0103
3051.00,0.0078
3038.00,0.0086
3025.00,0.0203
3012.00,0.0070
2999.00,0.0067
2986.00,0.0047
2973.00,0.0054
2960.00,0.0077
2947.00,0.0114
2934.00,0.0206
2921.00,0.0274
2908.00,0.0204
2895.00,0.0123
2882.00,0.0088
2869.00,0.0077
2856.00,0.0114
2843.00,0.0102
2830.00,0.0045
2817.00,0.0036
2804.00,0.0033
2791.00,0.0031
2778.00,0.0031
2765.00,0.0029
2752.00,0.0028
2739.00,0.0027
2726.00,0.0028
2713.00,0.0027
2700.00,0.0027
2687.00,0.0027
2674.00,0.0027
2661.00,0.0030
2648.00,0.0031
2635.00,0.0031
2622.00,0.0029
2609.00,0.0029
2596.00,0.0028
2583.00,0.0027
2570.00,0.0025
2557.00,0.0024
2544.00,0.0024
2531.00,0.0023
2518.00,0.0023
2505.00,0.0021
2492.00,0.0021
2479.00,0.0021
2466.00,0.0020
2453.00,0.0021
2440.00,0.0020
2427.00,0.0018
2414.00,0.0018
2401.00,0.0016
2388.00,0.0016
2375.00,0.0016
2362.00,0.0017
2349.00,0.0019
2336.00,0.0023
2323.00,0.0032
2310.00,0.0025
2297.00,0.0024
2284.00,0.0027
2271.00,0.0023
2258.00,0.0022
2245.00,0.0020
2232.00,0.0019
2219.00,0.0018
2206.00,0.0019
2193.00,0.0020
2180.00,0.0015
2167.00,0.0027
2154.00,-0.0005
2141.00,-0.0001
2128.00,0.0004
2115.00,0.0015
2102.00,0.0015
2089.00,0.0015
2076.00,0.0015
2063.00,0.0011
2050.00,0.0022
2037.00,0.0014
2024.00,0.0007
2011.00,0.0009
1998.00,0.0008
1985.00,0.0021
1972.00,0.0007
1959.00,0.0018
1946.00,0.0032
1933.00,0.0022
1920.00,0.0015
1907.00,0.0014
1894.00,0.0020
1881.00,0.0028
1868.00,0.0032
1855.00,0.0020
1842.00,0.0014
1829.00,0.0018
1816.00,0.0025
1803.00,0.0037
1790.00,0.0026
1777.00,0.0024
1764.00,0.0028
1751.00,0.0047
1738.00,0.0069
1725.00,0.0058
1712.00,0.0041
1699.00,0.0041
1686.00,0.0054
1673.00,0.0068
1660.00,0.0077
1647.00,0.0076
1634.00,0.0068
1621.00,0.0059
1608.00,0.0104
1595.00,0.0120
1582.00,0.0098
1569.00,0.0050
1556.00,0.0054
1543.00,0.0069
1530.00,0.0063
1517.00,0.0059
1504.00,0.0072
1491.00,0.0416
1478.00,0.0075
1465.00,0.0083
1452.00,0.0472
1439.00,0.0193
1426.00,0.0076
1413.00,0.0064
1400.00,0.0062
1387.00,0.0092
1374.00,0.0129
1361.00,0.0113
1348.00,0.0104
1335.00,0.0099
1322.00,0.0102
1309.00,0.0104
1296.00,0.0091
1283.00,0.0084
1270.00,0.0079
1257.00,0.0076
1244.00,0.0078
1231.00,0.0077
1218.00,0.0077
1205.00,0.0086
1192.00,0.0099
1179.00,0.0124
1166.00,0.0090
1153.00,0.0115
1140.00,0.0057
1127.00,0.0051
1114.00,0.0059
1101.00,0.0064
1088.00,0.0084
1075.00,0.0130
1062.00,0.0126
1049.00,0.0096
1036.00,0.0126
1023.00,0.0191
1010.00,0.0116
997.00,0.0096
984.00,0.0104
971.00,0.0102
958.00,0.0096
945.00,0.0090
932.00,0.0073
919.00,0.0083
906.00,0.0171
893.00,0.0077
880.00,0.0059
867.00,0.0053
854.00,0.0058
841.00,0.0095
828.00,0.0054
815.00,0.0054
802.00,0.0062
789.00,0.0099
776.00,0.0219
763.00,0.0535
750.00,0.0687
737.00,0.0319
724.00,0.0107
711.00,0.0207
698.00,0.1682
685.00,0.0679
672.00,0.0331
659.00,0.0215
646.00,0.0153
633.00,0.0162
620.00,0.0188
607.00,0.0157
594.00,0.0167
581.00,0.0201
568.00,0.0310
555.00,0.0426
542.00,0.0654
529.00,0.0488
516.00,0.0262
503.00,0.0192
490.00,0.0155
477.00,0.0142
464.00,0.0131
451.00,0.0118
438.00,0.0119
425.00,0.0115
412.00,0.0101
400.00,0.0105

File: 2025_11_14_Polystyrene_Post_Scan1.csv
Created as New Dataset,Sample 367 By YargerLab Date Friday, November 14 2025
cm-1,A
4000.00,-0.0005
3987.00,-0.0005
3974.00,-0.0006
3961.00,-0.0006
3948.00,-0.0006
3935.00,-0.0006
3922.00,-0.0007
3909.00,-0.0006
3896.00,-0.0006
3883.00,-0.0008
3870.00,-0.0007
3857.00,-0.0005
3844.00,-0.0008
3831.00,-0.0007
3818.00,-0.0008
3805.00,-0.0006
3792.00,-0.0008
3779.00,-0.0008
3766.00,-0.0007
3753.00,-0.0008
3740.00,-0.0009
3727.00,-0.0007
3714.00,-0.0007
3701.00,-0.0008
3688.00,-0.0008
3675.00,-0.0006
3662.00,-0.0005
3649.00,-0.0004
3636.00,-0.0002
3623.00,-0.0001
3610.00,0.0001
3597.00,0.0006
3584.00,0.0007
3571.00,0.0011
3558.00,0.0017
3545.00,0.0022
3532.00,0.0026
3519.00,0.0031
3506.00,0.0036
3493.00,0.0039
3480.00,0.0044
3467.00,0.0047
3454.00,0.0052
3441.00,0.0054
3428.00,0.0059
3415.00,0.0061
3402.00,0.0064
3389.00,0.0067
3376.00,0.0070
3363.00,0.0073
3350.00,0.0078
3337.00,0.0081
3324.00,0.0084
3311.00,0.0087
3298.00,0.0088
3285.00,0.0089
3272.00,0.0086
3259.00,0.0082
3246.00,0.0076
3233.00,0.0072
3220.00,0.0068
3207.00,0.0068
3194.00,0.0064
3181.00,0.0060
3168.00,0.0058
3155.00,0.0053
3142.00,0.0050
3129.00,0.0047
3116.00,0.0050
3103.00,0.0069
3090.00,0.0081
3077.00,0.0107
3064.00,0.0143
3051.00,0.0112
3038.00,0.0116
3025.00,0.0286
3012.00,0.0106
2999.00,0.0102
2986.00,0.0082
2973.00,0.0113
2960.00,0.0177
2947.00,0.0233
2934.00,0.0421
2921.00,0.0609
2908.00,0.0408
2895.00,0.0253
2882.00,0.0181
2869.00,0.0175
2856.00,0.0284
2843.00,0.0195
2830.00,0.0070
2817.00,0.0049
2804.00,0.0040
2791.00,0.0033
2778.00,0.0029
2765.00,0.0026
2752.00,0.0023
2739.00,0.0023
2726.00,0.0022
2713.00,0.0020
2700.00,0.0019
2687.00,0.0020
2674.00,0.0018
2661.00,0.0021
2648.00,0.0021
2635.00,0.0020
2622.00,0.0017
2609.00,0.0017
2596.00,0.0014
2583.00,0.0013
2570.00,0.0010
2557.00,0.0009
2544.00,0.0008
2531.00,0.0008
2518.00,0.0006
2505.00,0.0005
2492.00,0.0002
2479.00,0.0003
2466.00,0.0002
2453.00,0.0000
2440.00,-0.0001
2427.00,-0.0002
2414.00,-0.0004
2401.00,-0.0007
2388.00,-0.0007
2375.00,-0.0007
2362.00,-0.0006
2349.00,-0.0003
2336.00,-0.0001
2323.00,0.0006
2310.00,0.0003
2297.00,0.0001
2284.00,0.0002
2271.00,-0.0004
2258.00,-0.0003
2245.00,-0.0007
2232.00,-0.0008
2219.00,-0.0011
2206.00,-0.0008
2193.00,-0.0008
2180.00,-0.0008
2167.00,-0.0008
2154.00,-0.0033
2141.00,-0.0026
2128.00,-0.0023
2115.00,-0.0011
2102.00,-0.0011
2089.00,-0.0013
2076.00,-0.0010
2063.00,-0.0016
2050.00,-0.0005
2037.00,-0.0014
2024.00,-0.0013
2011.00,-0.0019
1998.00,-0.0013
1985.00,-0.0002
1972.00,-0.0010
1959.00,0.0003
1946.00,0.0018
1933.00,0.0007
1920.00,-0.0004
1907.00,-0.0006
1894.00,0.0004
1881.00,0.0014
1868.00,0.0020
1855.00,0.0004
1842.00,-0.0001
1829.00,0.0006
1816.00,0.0018
1803.00,0.0039
1790.00,0.0029
1777.00,0.0037
1764.00,0.0059
1751.00,0.0150
1738.00,0.0225
1725.00,0.0170
1712.00,0.0145
1699.00,0.0137
1686.00,0.0159
1673.00,0.0203
1660.00,0.0244
1647.00,0.0244
1634.00,0.0221
1621.00,0.0178
1608.00,0.0206
1595.00,0.0228
1582.00,0.0192
1569.00,0.0127
1556.00,0.0152
1543.00,0.0176
1530.00,0.0140
1517.00,0.0121
1504.00,0.0118
1491.00,0.0683
1478.00,0.0147
1465.00,0.0211
1452.00,0.0822
1439.00,0.0374
1426.00,0.0193
1413.00,0.0185
1400.00,0.0187
1387.00,0.0223
1374.00,0.0274
1361.00,0.0247
1348.00,0.0232
1335.00,0.0223
1322.00,0.0226
1309.00,0.0235
1296.00,0.0215
1283.00,0.0212
1270.00,0.0209
1257.00,0.0207
1244.00,0.0226
1231.00,0.0223
1218.00,0.0224
1205.00,0.0245
1192.00,0.0276
1179.00,0.0331
1166.00,0.0272
1153.00,0.0323
1140.00,0.0214
1127.00,0.0206
1114.00,0.0246
1101.00,0.0255
1088.00,0.0280
1075.00,0.0351
1062.00,0.0351
1049.00,0.0306
1036.00,0.0334
1023.00,0.0454
1010.00,0.0291
997.00,0.0235
984.00,0.0234
971.00,0.0221
958.00,0.0204
945.00,0.0188
932.00,0.0160
919.00,0.0161
906.00,0.0319
893.00,0.0160
880.00,0.0120
867.00,0.0117
854.00,0.0123
841.00,0.0189
828.00,0.0116
815.00,0.0114
802.00,0.0123
789.00,0.0181
776.00,0.0378
763.00,0.0922
750.00,0.1199
737.00,0.0571
724.00,0.0240
711.00,0.0360
698.00,0.3097
685.00,0.1256
672.00,0.0629
659.00,0.0429
646.00,0.0325
633.00,0.0342
620.00,0.0387
607.00,0.0331
594.00,0.0347
581.00,0.0399
568.00,0.0584
555.00,0.0779
542.00,0.1173
529.00,0.0902
516.00,0.0512
503.00,0.0371
490.00,0.0308
477.00,0.0280
464.00,0.0265
451.00,0.0254
438.00,0.0232
425.00,0.0235
412.00,0.0232
400.00,0.0189

File: 2025_11_14_Polystyrene_Post_Scan2.csv
Created as New Dataset,Sample 367 By YargerLab Date Friday, November 14 2025
cm-1,A
4000.00,0.0012
3987.00,0.0011
3974.00,0.0010
3961.00,0.0010
3948.00,0.0010
3935.00,0.0009
3922.00,0.0009
3909.00,0.0010
3896.00,0.0008
3883.00,0.0009
3870.00,0.0009
3857.00,0.0009
3844.00,0.0008
3831.00,0.0009
3818.00,0.0009
3805.00,0.0008
3792.00,0.0008
3779.00,0.0008
3766.00,0.0007
3753.00,0.0009
3740.00,0.0007
3727.00,0.0006
3714.00,0.0006
3701.00,0.0007
3688.00,0.0006
3675.00,0.0009
3662.00,0.0009
3649.00,0.0011
3636.00,0.0012
3623.00,0.0012
3610.00,0.0013
3597.00,0.0016
3584.00,0.0018
3571.00,0.0021
3558.00,0.0025
3545.00,0.0028
3532.00,0.0032
3519.00,0.0036
3506.00,0.0038
3493.00,0.0042
3480.00,0.0046
3467.00,0.0048
3454.00,0.0052
3441.00,0.0053
3428.00,0.0056
3415.00,0.0058
3402.00,0.0060
3389.00,0.0062
3376.00,0.0065
3363.00,0.0067
3350.00,0.0069
3337.00,0.0072
3324.00,0.0074
3311.00,0.0076
3298.00,0.0078
3285.00,0.0078
3272.00,0.0075
3259.00,0.0072
3246.00,0.0068
3233.00,0.0064
3220.00,0.0061
3207.00,0.0061
3194.00,0.0058
3181.00,0.0054
3168.00,0.0053
3155.00,0.0049
3142.00,0.0045
3129.00,0.0045
3116.00,0.0048
3103.00,0.0072
3090.00,0.0088
3077.00,0.0119
3064.00,0.0163
3051.00,0.0125
3038.00,0.0131
3025.00,0.0339
3012.00,0.0107
2999.00,0.0106
2986.00,0.0075
2973.00,0.0095
2960.00,0.0143
2947.00,0.0206
2934.00,0.0389
2921.00,0.0561
2908.00,0.0386
2895.00,0.0233
2882.00,0.0165
2869.00,0.0148
2856.00,0.0236
2843.00,0.0177
2830.00,0.0062
2817.00,0.0046
2804.00,0.0039
2791.00,0.0033
2778.00,0.0031
2765.00,0.0027
2752.00,0.0025
2739.00,0.0024
2726.00,0.0024
2713.00,0.0023
2700.00,0.0022
2687.00,0.0022
2674.00,0.0022
2661.00,0.0024
2648.00,0.0025
2635.00,0.0025
2622.00,0.0022
2609.00,0.0021
2596.00,0.0019
2583.00,0.0018
2570.00,0.0015
2557.00,0.0014
2544.00,0.0014
2531.00,0.0012
2518.00,0.0012
2505.00,0.0011
2492.00,0.0009
2479.00,0.0007
2466.00,0.0007
2453.00,0.0006
2440.00,0.0004
2427.00,0.0002
2414.00,0.0001
2401.00,-0.0001
2388.00,-0.0001
2375.00,0.0000
2362.00,0.0002
2349.00,0.0004
2336.00,0.0008
2323.00,0.0015
2310.00,0.0011
2297.00,0.0008
2284.00,0.0010
2271.00,0.0004
2258.00,0.0003
2245.00,0.0001
2232.00,-0.0001
2219.00,-0.0006
2206.00,-0.0003
2193.00,-0.0001
2180.00,-0.0006
2167.00,0.0003
2154.00,-0.0031
2141.00,-0.0022
2128.00,-0.0020
2115.00,-0.0006
2102.00,-0.0005
2089.00,-0.0008
2076.00,-0.0005
2063.00,-0.0010
2050.00,-0.0002
2037.00,-0.0004
2024.00,-0.0014
2011.00,-0.0007
1998.00,-0.0009
1985.00,0.0001
1972.00,-0.0008
1959.00,0.0007
1946.00,0.0031
1933.00,0.0013
1920.00,0.0001
1907.00,-0.0002
1894.00,0.0010
1881.00,0.0024
1868.00,0.0030
1855.00,0.0008
1842.00,0.0001
1829.00,0.0011
1816.00,0.0022
1803.00,0.0047
1790.00,0.0031
1777.00,0.0038
1764.00,0.0054
1751.00,0.0130
1738.00,0.0176
1725.00,0.0127
1712.00,0.0104
1699.00,0.0103
1686.00,0.0124
1673.00,0.0159
1660.00,0.0182
1647.00,0.0178
1634.00,0.0157
1621.00,0.0131
1608.00,0.0189
1595.00,0.0226
1582.00,0.0189
1569.00,0.0108
1556.00,0.0124
1543.00,0.0145
1530.00,0.0113
1517.00,0.0097
1504.00,0.0105
1491.00,0.0770
1478.00,0.0133
1465.00,0.0166
1452.00,0.0896
1439.00,0.0367
1426.00,0.0161
1413.00,0.0147
1400.00,0.0148
1387.00,0.0190
1374.00,0.0249
1361.00,0.0227
1348.00,0.0210
1335.00,0.0197
1322.00,0.0204
1309.00,0.0211
1296.00,0.0187
1283.00,0.0181
1270.00,0.0169
1257.00,0.0163
1244.00,0.0176
1231.00,0.0171
1218.00,0.0170
1205.00,0.0191
1192.00,0.0220
1179.00,0.0275
1166.00,0.0209
1153.00,0.0273
1140.00,0.0163
1127.00,0.0158
1114.00,0.0197
1101.00,0.0202
1088.00,0.0222
1075.00,0.0297
1062.00,0.0293
1049.00,0.0232
1036.00,0.0272
1023.00,0.0412
1010.00,0.0241
997.00,0.0190
984.00,0.0196
971.00,0.0184
958.00,0.0174
945.00,0.0165
932.00,0.0131
919.00,0.0140
906.00,0.0316
893.00,0.0132
880.00,0.0096
867.00,0.0090
854.00,0.0098
841.00,0.0169
828.00,0.0091
815.00,0.0090
802.00,0.0099
789.00,0.0166
776.00,0.0387
763.00,0.1000
750.00,0.1304
737.00,0.0576
724.00,0.0193
711.00,0.0338
698.00,0.3469
685.00,0.1307
672.00,0.0619
659.00,0.0399
646.00,0.0288
633.00,0.0305
620.00,0.0353
607.00,0.0289
594.00,0.0307
581.00,0.0371
568.00,0.0574
555.00,0.0792
542.00,0.1223
529.00,0.0906
516.00,0.0483
503.00,0.0342
490.00,0.0270
477.00,0.0245
464.00,0.0222
451.00,0.0217
438.00,0.0192
425.00,0.0185
412.00,0.0174
400.00,0.0147