Folder: Data/FTIR/Mary (part 4)

File: 2025_06_27_Polystyrene_Std_MEL_Scan2.csv
Created as New Dataset,Sample 743 By YargerLab Date Friday, June 27 2025
cm-1,A
4000.00,0.0011
3987.00,0.0011
3974.00,0.0010
3961.00,0.0010
3948.00,0.0011
3935.00,0.0011
3922.00,0.0012
3909.00,0.0010
3896.00,0.0011
3883.00,0.0011
3870.00,0.0011
3857.00,0.0010
3844.00,0.0011
3831.00,0.0011
3818.00,0.0011
3805.00,0.0011
3792.00,0.0011
3779.00,0.0011
3766.00,0.0011
3753.00,0.0012
3740.00,0.0013
3727.00,0.0012
3714.00,0.0011
3701.00,0.0011
3688.00,0.0011
3675.00,0.0009
3662.00,0.0008
3649.00,0.0010
3636.00,0.0009
3623.00,0.0011
3610.00,0.0012
3597.00,0.0011
3584.00,0.0012
3571.00,0.0011
3558.00,0.0011
3545.00,0.0012
3532.00,0.0012
3519.00,0.0012
3506.00,0.0013
3493.00,0.0013
3480.00,0.0013
3467.00,0.0013
3454.00,0.0013
3441.00,0.0014
3428.00,0.0014
3415.00,0.0014
3402.00,0.0014
3389.00,0.0014
3376.00,0.0014
3363.00,0.0014
3350.00,0.0014
3337.00,0.0015
3324.00,0.0014
3311.00,0.0014
3298.00,0.0014
3285.00,0.0014
3272.00,0.0014
3259.00,0.0014
3246.00,0.0013
3233.00,0.0014
3220.00,0.0014
3207.00,0.0013
3194.00,0.0013
3181.00,0.0013
3168.00,0.0013
3155.00,0.0013
3142.00,0.0013
3129.00,0.0014
3116.00,0.0016
3103.00,0.0028
3090.00,0.0036
3077.00,0.0051
3064.00,0.0072
3051.00,0.0054
3038.00,0.0057
3025.00,0.0161
3012.00,0.0045
2999.00,0.0034
2986.00,0.0008
2973.00,0.0008
2960.00,0.0026
2947.00,0.0059
2934.00,0.0131
2921.00,0.0188
2908.00,0.0140
2895.00,0.0080
2882.00,0.0054
2869.00,0.0045
2856.00,0.0072
2843.00,0.0069
2830.00,0.0026
2817.00,0.0020
2804.00,0.0018
2791.00,0.0017
2778.00,0.0016
2765.00,0.0015
2752.00,0.0015
2739.00,0.0015
2726.00,0.0016
2713.00,0.0015
2700.00,0.0015
2687.00,0.0015
2674.00,0.0015
2661.00,0.0016
2648.00,0.0017
2635.00,0.0018
2622.00,0.0016
2609.00,0.0016
2596.00,0.0015
2583.00,0.0014
2570.00,0.0014
2557.00,0.0013
2544.00,0.0013
2531.00,0.0013
2518.00,0.0013
2505.00,0.0012
2492.00,0.0012
2479.00,0.0012
2466.00,0.0011
2453.00,0.0013
2440.00,0.0012
2427.00,0.0011
2414.00,0.0010
2401.00,0.0010
2388.00,0.0010
2375.00,0.0010
2362.00,0.0012
2349.00,0.0013
2336.00,0.0015
2323.00,0.0019
2310.00,0.0017
2297.00,0.0015
2284.00,0.0017
2271.00,0.0014
2258.00,0.0014
2245.00,0.0014
2232.00,0.0013
2219.00,0.0012
2206.00,0.0011
2193.00,0.0011
2180.00,0.0008
2167.00,0.0014
2154.00,-0.0002
2141.00,0.0002
2128.00,0.0005
2115.00,0.0009
2102.00,0.0008
2089.00,0.0009
2076.00,0.0011
2063.00,0.0008
2050.00,0.0014
2037.00,0.0009
2024.00,0.0005
2011.00,0.0006
1998.00,0.0008
1985.00,0.0015
1972.00,0.0006
1959.00,0.0014
1946.00,0.0025
1933.00,0.0017
1920.00,0.0010
1907.00,0.0009
1894.00,0.0016
1881.00,0.0023
1868.00,0.0027
1855.00,0.0015
1842.00,0.0011
1829.00,0.0014
1816.00,0.0020
1803.00,0.0030
1790.00,0.0021
1777.00,0.0017
1764.00,0.0018
1751.00,0.0030
1738.00,0.0034
1725.00,0.0028
1712.00,0.0024
1699.00,0.0023
1686.00,0.0024
1673.00,0.0027
1660.00,0.0026
1647.00,0.0023
1634.00,0.0022
1621.00,0.0025
1608.00,0.0068
1595.00,0.0091
1582.00,0.0070
1569.00,0.0022
1556.00,0.0023
1543.00,0.0031
1530.00,0.0025
1517.00,0.0025
1504.00,0.0042
1491.00,0.0397
1478.00,0.0051
1465.00,0.0051
1452.00,0.0438
1439.00,0.0160
1426.00,0.0050
1413.00,0.0036
1400.00,0.0032
1387.00,0.0053
1374.00,0.0089
1361.00,0.0087
1348.00,0.0080
1335.00,0.0071
1322.00,0.0076
1309.00,0.0079
1296.00,0.0064
1283.00,0.0059
1270.00,0.0046
1257.00,0.0040
1244.00,0.0044
1231.00,0.0044
1218.00,0.0046
1205.00,0.0060
1192.00,0.0074
1179.00,0.0091
1166.00,0.0053
1153.00,0.0091
1140.00,0.0038
1127.00,0.0037
1114.00,0.0055
1101.00,0.0057
1088.00,0.0068
1075.00,0.0111
1062.00,0.0112
1049.00,0.0078
1036.00,0.0109
1023.00,0.0184
1010.00,0.0100
997.00,0.0082
984.00,0.0091
971.00,0.0085
958.00,0.0079
945.00,0.0079
932.00,0.0060
919.00,0.0073
906.00,0.0174
893.00,0.0065
880.00,0.0047
867.00,0.0043
854.00,0.0046
841.00,0.0088
828.00,0.0041
815.00,0.0040
802.00,0.0045
789.00,0.0088
776.00,0.0216
763.00,0.0567
750.00,0.0739
737.00,0.0311
724.00,0.0090
711.00,0.0196
698.00,0.1969
685.00,0.0741
672.00,0.0323
659.00,0.0190
646.00,0.0118
633.00,0.0131
620.00,0.0160
607.00,0.0122
594.00,0.0135
581.00,0.0180
568.00,0.0304
555.00,0.0436
542.00,0.0694
529.00,0.0502
516.00,0.0249
503.00,0.0165
490.00,0.0129
477.00,0.0105
464.00,0.0101
451.00,0.0083
438.00,0.0075
425.00,0.0067
412.00,0.0073
400.00,0.0054

File: 2025_06_27_Polystyrene_Std_MEL_Scan3.csv
Created as New Dataset,Sample 744 By YargerLab Date Friday, June 27 2025
cm-1,A
4000.00,0.0015
3987.00,0.0015
3974.00,0.0015
3961.00,0.0015
3948.00,0.0015
3935.00,0.0015
3922.00,0.0015
3909.00,0.0015
3896.00,0.0015
3883.00,0.0015
3870.00,0.0015
3857.00,0.0014
3844.00,0.0015
3831.00,0.0015
3818.00,0.0016
3805.00,0.0016
3792.00,0.0015
3779.00,0.0015
3766.00,0.0015
3753.00,0.0017
3740.00,0.0016
3727.00,0.0015
3714.00,0.0015
3701.00,0.0015
3688.00,0.0014
3675.00,0.0014
3662.00,0.0012
3649.00,0.0014
3636.00,0.0013
3623.00,0.0015
3610.00,0.0015
3597.00,0.0015
3584.00,0.0016
3571.00,0.0015
3558.00,0.0015
3545.00,0.0016
3532.00,0.0016
3519.00,0.0016
3506.00,0.0017
3493.00,0.0017
3480.00,0.0017
3467.00,0.0017
3454.00,0.0017
3441.00,0.0018
3428.00,0.0018
3415.00,0.0018
3402.00,0.0019
3389.00,0.0019
3376.00,0.0018
3363.00,0.0018
3350.00,0.0019
3337.00,0.0018
3324.00,0.0018
3311.00,0.0018
3298.00,0.0018
3285.00,0.0017
3272.00,0.0018
3259.00,0.0017
3246.00,0.0017
3233.00,0.0018
3220.00,0.0017
3207.00,0.0017
3194.00,0.0018
3181.00,0.0017
3168.00,0.0017
3155.00,0.0017
3142.00,0.0016
3129.00,0.0017
3116.00,0.0021
3103.00,0.0034
3090.00,0.0043
3077.00,0.0060
3064.00,0.0084
3051.00,0.0065
3038.00,0.0068
3025.00,0.0184
3012.00,0.0054
2999.00,0.0043
2986.00,0.0015
2973.00,0.0015
2960.00,0.0036
2947.00,0.0073
2934.00,0.0154
2921.00,0.0218
2908.00,0.0166
2895.00,0.0096
2882.00,0.0067
2869.00,0.0056
2856.00,0.0085
2843.00,0.0083
2830.00,0.0033
2817.00,0.0025
2804.00,0.0024
2791.00,0.0022
2778.00,0.0021
2765.00,0.0020
2752.00,0.0019
2739.00,0.0019
2726.00,0.0020
2713.00,0.0019
2700.00,0.0019
2687.00,0.0019
2674.00,0.0019
2661.00,0.0021
2648.00,0.0022
2635.00,0.0023
2622.00,0.0021
2609.00,0.0021
2596.00,0.0020
2583.00,0.0019
2570.00,0.0018
2557.00,0.0017
2544.00,0.0017
2531.00,0.0016
2518.00,0.0017
2505.00,0.0016
2492.00,0.0017
2479.00,0.0015
2466.00,0.0015
2453.00,0.0016
2440.00,0.0015
2427.00,0.0014
2414.00,0.0013
2401.00,0.0013
2388.00,0.0012
2375.00,0.0012
2362.00,0.0014
2349.00,0.0015
2336.00,0.0017
2323.00,0.0025
2310.00,0.0020
2297.00,0.0020
2284.00,0.0022
2271.00,0.0017
2258.00,0.0018
2245.00,0.0016
2232.00,0.0017
2219.00,0.0018
2206.00,0.0015
2193.00,0.0016
2180.00,0.0013
2167.00,0.0022
2154.00,-0.0005
2141.00,0.0002
2128.00,0.0004
2115.00,0.0013
2102.00,0.0010
2089.00,0.0012
2076.00,0.0013
2063.00,0.0011
2050.00,0.0017
2037.00,0.0011
2024.00,0.0005
2011.00,0.0009
1998.00,0.0010
1985.00,0.0017
1972.00,0.0006
1959.00,0.0016
1946.00,0.0031
1933.00,0.0022
1920.00,0.0013
1907.00,0.0012
1894.00,0.0019
1881.00,0.0027
1868.00,0.0030
1855.00,0.0018
1842.00,0.0014
1829.00,0.0017
1816.00,0.0024
1803.00,0.0035
1790.00,0.0024
1777.00,0.0021
1764.00,0.0023
1751.00,0.0038
1738.00,0.0048
1725.00,0.0040
1712.00,0.0033
1699.00,0.0031
1686.00,0.0030
1673.00,0.0034
1660.00,0.0032
1647.00,0.0028
1634.00,0.0027
1621.00,0.0030
1608.00,0.0080
1595.00,0.0105
1582.00,0.0082
1569.00,0.0028
1556.00,0.0029
1543.00,0.0037
1530.00,0.0031
1517.00,0.0030
1504.00,0.0049
1491.00,0.0454
1478.00,0.0061
1465.00,0.0062
1452.00,0.0505
1439.00,0.0187
1426.00,0.0061
1413.00,0.0044
1400.00,0.0040
1387.00,0.0064
1374.00,0.0104
1361.00,0.0101
1348.00,0.0094
1335.00,0.0083
1322.00,0.0089
1309.00,0.0093
1296.00,0.0077
1283.00,0.0071
1270.00,0.0057
1257.00,0.0052
1244.00,0.0057
1231.00,0.0057
1218.00,0.0059
1205.00,0.0073
1192.00,0.0088
1179.00,0.0108
1166.00,0.0066
1153.00,0.0109
1140.00,0.0049
1127.00,0.0047
1114.00,0.0067
1101.00,0.0068
1088.00,0.0081
1075.00,0.0129
1062.00,0.0130
1049.00,0.0092
1036.00,0.0126
1023.00,0.0209
1010.00,0.0116
997.00,0.0094
984.00,0.0104
971.00,0.0099
958.00,0.0091
945.00,0.0091
932.00,0.0070
919.00,0.0083
906.00,0.0196
893.00,0.0074
880.00,0.0056
867.00,0.0050
854.00,0.0055
841.00,0.0102
828.00,0.0048
815.00,0.0048
802.00,0.0054
789.00,0.0101
776.00,0.0248
763.00,0.0651
750.00,0.0852
737.00,0.0359
724.00,0.0103
711.00,0.0225
698.00,0.2323
685.00,0.0856
672.00,0.0375
659.00,0.0221
646.00,0.0138
633.00,0.0155
620.00,0.0187
607.00,0.0142
594.00,0.0158
581.00,0.0206
568.00,0.0347
555.00,0.0504
542.00,0.0801
529.00,0.0576
516.00,0.0286
503.00,0.0189
490.00,0.0150
477.00,0.0130
464.00,0.0114
451.00,0.0106
438.00,0.0088
425.00,0.0078
412.00,0.0089
400.00,0.0097

File: 2025_07_07_Polystyrene_Std_scan1.csv
Created as New Dataset,Sample 767 By YargerLab Date Monday, July 07 2025
cm-1,A
4000.00,0.0019
3987.00,0.0018
3974.00,0.0018
3961.00,0.0017
3948.00,0.0017
3935.00,0.0017
3922.00,0.0017
3909.00,0.0017
3896.00,0.0016
3883.00,0.0016
3870.00,0.0016
3857.00,0.0016
3844.00,0.0017
3831.00,0.0016
3818.00,0.0016
3805.00,0.0017
3792.00,0.0018
3779.00,0.0018
3766.00,0.0017
3753.00,0.0016
3740.00,0.0015
3727.00,0.0016
3714.00,0.0016
3701.00,0.0017
3688.00,0.0015
3675.00,0.0015
3662.00,0.0018
3649.00,0.0016
3636.00,0.0018
3623.00,0.0017
3610.00,0.0016
3597.00,0.0017
3584.00,0.0018
3571.00,0.0018
3558.00,0.0019
3545.00,0.0020
3532.00,0.0021
3519.00,0.0022
3506.00,0.0022
3493.00,0.0024
3480.00,0.0024
3467.00,0.0025
3454.00,0.0025
3441.00,0.0025
3428.00,0.0025
3415.00,0.0024
3402.00,0.0025
3389.00,0.0025
3376.00,0.0025
3363.00,0.0025
3350.00,0.0025
3337.00,0.0025
3324.00,0.0025
3311.00,0.0024
3298.00,0.0024
3285.00,0.0024
3272.00,0.0024
3259.00,0.0024
3246.00,0.0024
3233.00,0.0023
3220.00,0.0023
3207.00,0.0024
3194.00,0.0023
3181.00,0.0023
3168.00,0.0024
3155.00,0.0023
3142.00,0.0023
3129.00,0.0023
3116.00,0.0029
3103.00,0.0051
3090.00,0.0067
3077.00,0.0095
3064.00,0.0136
3051.00,0.0101
3038.00,0.0110
3025.00,0.0302
3012.00,0.0086
2999.00,0.0083
2986.00,0.0047
2973.00,0.0052
2960.00,0.0073
2947.00,0.0130
2934.00,0.0262
2921.00,0.0363
2908.00,0.0273
2895.00,0.0162
2882.00,0.0114
2869.00,0.0092
2856.00,0.0139
2843.00,0.0130
2830.00,0.0050
2817.00,0.0039
2804.00,0.0036
2791.00,0.0033
2778.00,0.0032
2765.00,0.0030
2752.00,0.0028
2739.00,0.0028
2726.00,0.0029
2713.00,0.0028
2700.00,0.0029
2687.00,0.0028
2674.00,0.0028
2661.00,0.0032
2648.00,0.0034
2635.00,0.0034
2622.00,0.0031
2609.00,0.0031
2596.00,0.0029
2583.00,0.0029
2570.00,0.0026
2557.00,0.0025
2544.00,0.0025
2531.00,0.0023
2518.00,0.0024
2505.00,0.0023
2492.00,0.0023
2479.00,0.0022
2466.00,0.0022
2453.00,0.0023
2440.00,0.0021
2427.00,0.0020
2414.00,0.0019
2401.00,0.0017
2388.00,0.0017
2375.00,0.0018
2362.00,0.0020
2349.00,0.0024
2336.00,0.0028
2323.00,0.0036
2310.00,0.0030
2297.00,0.0028
2284.00,0.0031
2271.00,0.0026
2258.00,0.0024
2245.00,0.0021
2232.00,0.0019
2219.00,0.0019
2206.00,0.0022
2193.00,0.0022
2180.00,0.0015
2167.00,0.0026
2154.00,-0.0010
2141.00,-0.0002
2128.00,0.0001
2115.00,0.0016
2102.00,0.0014
2089.00,0.0016
2076.00,0.0017
2063.00,0.0015
2050.00,0.0022
2037.00,0.0017
2024.00,0.0004
2011.00,0.0012
1998.00,0.0009
1985.00,0.0024
1972.00,0.0010
1959.00,0.0023
1946.00,0.0045
1933.00,0.0030
1920.00,0.0016
1907.00,0.0017
1894.00,0.0025
1881.00,0.0039
1868.00,0.0045
1855.00,0.0025
1842.00,0.0018
1829.00,0.0024
1816.00,0.0035
1803.00,0.0055
1790.00,0.0037
1777.00,0.0035
1764.00,0.0040
1751.00,0.0062
1738.00,0.0072
1725.00,0.0059
1712.00,0.0049
1699.00,0.0045
1686.00,0.0046
1673.00,0.0050
1660.00,0.0049
1647.00,0.0041
1634.00,0.0040
1621.00,0.0046
1608.00,0.0126
1595.00,0.0160
1582.00,0.0127
1569.00,0.0043
1556.00,0.0041
1543.00,0.0055
1530.00,0.0044
1517.00,0.0040
1504.00,0.0072
1491.00,0.0690
1478.00,0.0092
1465.00,0.0093
1452.00,0.0777
1439.00,0.0280
1426.00,0.0090
1413.00,0.0070
1400.00,0.0070
1387.00,0.0113
1374.00,0.0171
1361.00,0.0159
1348.00,0.0144
1335.00,0.0131
1322.00,0.0139
1309.00,0.0142
1296.00,0.0116
1283.00,0.0108
1270.00,0.0089
1257.00,0.0083
1244.00,0.0087
1231.00,0.0084
1218.00,0.0087
1205.00,0.0108
1192.00,0.0131
1179.00,0.0165
1166.00,0.0108
1153.00,0.0170
1140.00,0.0081
1127.00,0.0076
1114.00,0.0102
1101.00,0.0103
1088.00,0.0124
1075.00,0.0194
1062.00,0.0191
1049.00,0.0130
1036.00,0.0178
1023.00,0.0296
1010.00,0.0163
997.00,0.0132
984.00,0.0151
971.00,0.0149
958.00,0.0142
945.00,0.0139
932.00,0.0104
919.00,0.0121
906.00,0.0276
893.00,0.0107
880.00,0.0079
867.00,0.0072
854.00,0.0080
841.00,0.0144
828.00,0.0070
815.00,0.0067
802.00,0.0077
789.00,0.0141
776.00,0.0349
763.00,0.0922
750.00,0.1191
737.00,0.0494
724.00,0.0141
711.00,0.0311
698.00,0.3324
685.00,0.1122
672.00,0.0500
659.00,0.0296
646.00,0.0193
633.00,0.0214
620.00,0.0255
607.00,0.0198
594.00,0.0219
581.00,0.0280
568.00,0.0473
555.00,0.0680
542.00,0.1073
529.00,0.0752
516.00,0.0372
503.00,0.0248
490.00,0.0187
477.00,0.0162
464.00,0.0148
451.00,0.0140
438.00,0.0124
425.00,0.0106
412.00,0.0112
400.00,0.0089

File: 2025_07_07_Polystyrene_Std_scan2.csv
Created as New Dataset,Sample 768 By YargerLab Date Monday, July 07 2025
cm-1,A
4000.00,0.0020
3987.00,0.0021
3974.00,0.0020
3961.00,0.0020
3948.00,0.0020
3935.00,0.0020
3922.00,0.0021
3909.00,0.0020
3896.00,0.0020
3883.00,0.0019
3870.00,0.0020
3857.00,0.0021
3844.00,0.0020
3831.00,0.0020
3818.00,0.0021
3805.00,0.0021
3792.00,0.0020
3779.00,0.0020
3766.00,0.0020
3753.00,0.0021
3740.00,0.0020
3727.00,0.0019
3714.00,0.0020
3701.00,0.0019
3688.00,0.0019
3675.00,0.0020
3662.00,0.0021
3649.00,0.0021
3636.00,0.0021
3623.00,0.0022
3610.00,0.0023
3597.00,0.0023
3584.00,0.0025
3571.00,0.0026
3558.00,0.0028
3545.00,0.0029
3532.00,0.0031
3519.00,0.0032
3506.00,0.0034
3493.00,0.0037
3480.00,0.0038
3467.00,0.0040
3454.00,0.0041
3441.00,0.0043
3428.00,0.0045
3415.00,0.0046
3402.00,0.0048
3389.00,0.0049
3376.00,0.0050
3363.00,0.0052
3350.00,0.0054
3337.00,0.0055
3324.00,0.0055
3311.00,0.0053
3298.00,0.0053
3285.00,0.0053
3272.00,0.0052
3259.00,0.0050
3246.00,0.0047
3233.00,0.0044
3220.00,0.0042
3207.00,0.0042
3194.00,0.0040
3181.00,0.0038
3168.00,0.0038
3155.00,0.0036
3142.00,0.0034
3129.00,0.0034
3116.00,0.0038
3103.00,0.0059
3090.00,0.0075
3077.00,0.0101
3064.00,0.0141
3051.00,0.0105
3038.00,0.0114
3025.00,0.0299
3012.00,0.0091
2999.00,0.0086
2986.00,0.0051
2973.00,0.0057
2960.00,0.0078
2947.00,0.0134
2934.00,0.0261
2921.00,0.0359
2908.00,0.0278
2895.00,0.0171
2882.00,0.0123
2869.00,0.0101
2856.00,0.0144
2843.00,0.0135
2830.00,0.0056
2817.00,0.0045
2804.00,0.0041
2791.00,0.0038
2778.00,0.0037
2765.00,0.0034
2752.00,0.0033
2739.00,0.0033
2726.00,0.0033
2713.00,0.0032
2700.00,0.0032
2687.00,0.0032
2674.00,0.0032
2661.00,0.0035
2648.00,0.0037
2635.00,0.0037
2622.00,0.0034
2609.00,0.0035
2596.00,0.0032
2583.00,0.0031
2570.00,0.0028
2557.00,0.0027
2544.00,0.0027
2531.00,0.0026
2518.00,0.0026
2505.00,0.0026
2492.00,0.0025
2479.00,0.0024
2466.00,0.0024
2453.00,0.0024
2440.00,0.0022
2427.00,0.0021
2414.00,0.0021
2401.00,0.0019
2388.00,0.0019
2375.00,0.0020
2362.00,0.0022
2349.00,0.0024
2336.00,0.0029
2323.00,0.0039
2310.00,0.0033
2297.00,0.0030
2284.00,0.0033
2271.00,0.0028
2258.00,0.0026
2245.00,0.0025
2232.00,0.0022
2219.00,0.0020
2206.00,0.0022
2193.00,0.0022
2180.00,0.0018
2167.00,0.0030
2154.00,-0.0006
2141.00,0.0002
2128.00,0.0004
2115.00,0.0015
2102.00,0.0016
2089.00,0.0016
2076.00,0.0018
2063.00,0.0015
2050.00,0.0024
2037.00,0.0019
2024.00,0.0010
2011.00,0.0014
1998.00,0.0008
1985.00,0.0022
1972.00,0.0009
1959.00,0.0022
1946.00,0.0044
1933.00,0.0029
1920.00,0.0017
1907.00,0.0016
1894.00,0.0024
1881.00,0.0038
1868.00,0.0044
1855.00,0.0025
1842.00,0.0018
1829.00,0.0023
1816.00,0.0034
1803.00,0.0052
1790.00,0.0036
1777.00,0.0034
1764.00,0.0039
1751.00,0.0060
1738.00,0.0072
1725.00,0.0061
1712.00,0.0052
1699.00,0.0048
1686.00,0.0051
1673.00,0.0056
1660.00,0.0056
1647.00,0.0050
1634.00,0.0049
1621.00,0.0052
1608.00,0.0128
1595.00,0.0160
1582.00,0.0128
1569.00,0.0047
1556.00,0.0046
1543.00,0.0058
1530.00,0.0046
1517.00,0.0043
1504.00,0.0075
1491.00,0.0657
1478.00,0.0095
1465.00,0.0099
1452.00,0.0747
1439.00,0.0282
1426.00,0.0104
1413.00,0.0082
1400.00,0.0080
1387.00,0.0120
1374.00,0.0180
1361.00,0.0169
1348.00,0.0154
1335.00,0.0145
1322.00,0.0152
1309.00,0.0154
1296.00,0.0124
1283.00,0.0117
1270.00,0.0097
1257.00,0.0090
1244.00,0.0095
1231.00,0.0091
1218.00,0.0092
1205.00,0.0114
1192.00,0.0134
1179.00,0.0168
1166.00,0.0123
1153.00,0.0186
1140.00,0.0097
1127.00,0.0098
1114.00,0.0135
1101.00,0.0138
1088.00,0.0152
1075.00,0.0223
1062.00,0.0232
1049.00,0.0181
1036.00,0.0225
1023.00,0.0338
1010.00,0.0207
997.00,0.0177
984.00,0.0191
971.00,0.0173
958.00,0.0157
945.00,0.0148
932.00,0.0112
919.00,0.0127
906.00,0.0277
893.00,0.0114
880.00,0.0085
867.00,0.0075
854.00,0.0082
841.00,0.0145
828.00,0.0075
815.00,0.0073
802.00,0.0083
789.00,0.0144
776.00,0.0341
763.00,0.0877
750.00,0.1135
737.00,0.0487
724.00,0.0153
711.00,0.0320
698.00,0.3077
685.00,0.1096
672.00,0.0512
659.00,0.0320
646.00,0.0218
633.00,0.0240
620.00,0.0281
607.00,0.0227
594.00,0.0250
581.00,0.0305
568.00,0.0485
555.00,0.0688
542.00,0.1054
529.00,0.0761
516.00,0.0400
503.00,0.0274
490.00,0.0218
477.00,0.0193
464.00,0.0179
451.00,0.0158
438.00,0.0155
425.00,0.0143
412.00,0.0132
400.00,0.0123

File: 2025_10_03_Polystyrene_Calibration_1.csv
Created as New Dataset,Sample 170 By YargerLab Date Friday, October 03 2025
cm-1,A
4000.00,0.0014
3987.00,0.0013
3974.00,0.0013
3961.00,0.0013
3948.00,0.0012
3935.00,0.0013
3922.00,0.0013
3909.00,0.0013
3896.00,0.0012
3883.00,0.0011
3870.00,0.0011
3857.00,0.0012
3844.00,0.0012
3831.00,0.0012
3818.00,0.0011
3805.00,0.0012
3792.00,0.0013
3779.00,0.0013
3766.00,0.0013
3753.00,0.0012
3740.00,0.0011
3727.00,0.0012
3714.00,0.0012
3701.00,0.0013
3688.00,0.0011
3675.00,0.0011
3662.00,0.0013
3649.00,0.0012
3636.00,0.0013
3623.00,0.0013
3610.00,0.0012
3597.00,0.0013
3584.00,0.0013
3571.00,0.0014
3558.00,0.0014
3545.00,0.0015
3532.00,0.0017
3519.00,0.0018
3506.00,0.0018
3493.00,0.0020
3480.00,0.0021
3467.00,0.0021
3454.00,0.0022
3441.00,0.0022
3428.00,0.0022
3415.00,0.0022
3402.00,0.0023
3389.00,0.0022
3376.00,0.0023
3363.00,0.0023
3350.00,0.0023
3337.00,0.0023
3324.00,0.0023
3311.00,0.0024
3298.00,0.0023
3285.00,0.0023
3272.00,0.0023
3259.00,0.0022
3246.00,0.0022
3233.00,0.0021
3220.00,0.0022
3207.00,0.0022
3194.00,0.0022
3181.00,0.0020
3168.00,0.0021
3155.00,0.0020
3142.00,0.0019
3129.00,0.0020
3116.00,0.0024
3103.00,0.0040
3090.00,0.0055
3077.00,0.0073
3064.00,0.0106
3051.00,0.0078
3038.00,0.0087
3025.00,0.0224
3012.00,0.0069
2999.00,0.0068
2986.00,0.0046
2973.00,0.0053
2960.00,0.0076
2947.00,0.0120
2934.00,0.0229
2921.00,0.0305
2908.00,0.0231
2895.00,0.0147
2882.00,0.0107
2869.00,0.0093
2856.00,0.0133
2843.00,0.0113
2830.00,0.0045
2817.00,0.0035
2804.00,0.0031
2791.00,0.0028
2778.00,0.0026
2765.00,0.0024
2752.00,0.0023
2739.00,0.0024
2726.00,0.0024
2713.00,0.0023
2700.00,0.0023
2687.00,0.0022
2674.00,0.0022
2661.00,0.0025
2648.00,0.0027
2635.00,0.0027
2622.00,0.0025
2609.00,0.0024
2596.00,0.0023
2583.00,0.0022
2570.00,0.0021
2557.00,0.0019
2544.00,0.0019
2531.00,0.0018
2518.00,0.0018
2505.00,0.0017
2492.00,0.0017
2479.00,0.0016
2466.00,0.0016
2453.00,0.0017
2440.00,0.0016
2427.00,0.0013
2414.00,0.0013
2401.00,0.0012
2388.00,0.0012
2375.00,0.0012
2362.00,0.0013
2349.00,0.0017
2336.00,0.0020
2323.00,0.0029
2310.00,0.0023
2297.00,0.0022
2284.00,0.0024
2271.00,0.0019
2258.00,0.0018
2245.00,0.0017
2232.00,0.0015
2219.00,0.0014
2206.00,0.0015
2193.00,0.0017
2180.00,0.0010
2167.00,0.0023
2154.00,-0.0009
2141.00,-0.0003
2128.00,-0.0000
2115.00,0.0012
2102.00,0.0011
2089.00,0.0010
2076.00,0.0010
2063.00,0.0008
2050.00,0.0015
2037.00,0.0009
2024.00,0.0002
2011.00,0.0005
1998.00,0.0006
1985.00,0.0017
1972.00,0.0003
1959.00,0.0018
1946.00,0.0034
1933.00,0.0020
1920.00,0.0011
1907.00,0.0012
1894.00,0.0018
1881.00,0.0028
1868.00,0.0035
1855.00,0.0018
1842.00,0.0014
1829.00,0.0017
1816.00,0.0026
1803.00,0.0041
1790.00,0.0027
1777.00,0.0025
1764.00,0.0029
1751.00,0.0053
1738.00,0.0067
1725.00,0.0051
1712.00,0.0037
1699.00,0.0036
1686.00,0.0041
1673.00,0.0047
1660.00,0.0048
1647.00,0.0040
1634.00,0.0035
1621.00,0.0051
1608.00,0.0105
1595.00,0.0123
1582.00,0.0104
1569.00,0.0038
1556.00,0.0034
1543.00,0.0047
1530.00,0.0034
1517.00,0.0034
1504.00,0.0057
1491.00,0.0491
1478.00,0.0074
1465.00,0.0087
1452.00,0.0564
1439.00,0.0224
1426.00,0.0085
1413.00,0.0064
1400.00,0.0068
1387.00,0.0093
1374.00,0.0136
1361.00,0.0131
1348.00,0.0118
1335.00,0.0104
1322.00,0.0109
1309.00,0.0111
1296.00,0.0097
1283.00,0.0093
1270.00,0.0075
1257.00,0.0069
1244.00,0.0077
1231.00,0.0074
1218.00,0.0072
1205.00,0.0083
1192.00,0.0106
1179.00,0.0129
1166.00,0.0090
1153.00,0.0141
1140.00,0.0076
1127.00,0.0081
1114.00,0.0108
1101.00,0.0095
1088.00,0.0102
1075.00,0.0150
1062.00,0.0155
1049.00,0.0106
1036.00,0.0137
1023.00,0.0216
1010.00,0.0122
997.00,0.0100
984.00,0.0112
971.00,0.0112
958.00,0.0109
945.00,0.0103
932.00,0.0080
919.00,0.0091
906.00,0.0198
893.00,0.0083
880.00,0.0063
867.00,0.0060
854.00,0.0063
841.00,0.0111
828.00,0.0059
815.00,0.0059
802.00,0.0060
789.00,0.0103
776.00,0.0250
763.00,0.0638
750.00,0.0821
737.00,0.0365
724.00,0.0109
711.00,0.0230
698.00,0.2086
685.00,0.0781
672.00,0.0369
659.00,0.0229
646.00,0.0156
633.00,0.0167
620.00,0.0197
607.00,0.0161
594.00,0.0173
581.00,0.0214
568.00,0.0346
555.00,0.0485
542.00,0.0752
529.00,0.0548
516.00,0.0289
503.00,0.0203
490.00,0.0165
477.00,0.0145
464.00,0.0132
451.00,0.0119
438.00,0.0121
425.00,0.0111
412.00,0.0117
400.00,0.0091

File: 2025_10_03_Polystyrene_Calibration_2.csv
Created as New Dataset,Sample 171 By YargerLab Date Friday, October 03 2025
cm-1,A
4000.00,0.0014
3987.00,0.0014
3974.00,0.0013
3961.00,0.0013
3948.00,0.0013
3935.00,0.0014
3922.00,0.0013
3909.00,0.0014
3896.00,0.0013
3883.00,0.0012
3870.00,0.0012
3857.00,0.0013
3844.00,0.0013
3831.00,0.0013
3818.00,0.0012
3805.00,0.0014
3792.00,0.0014
3779.00,0.0014
3766.00,0.0013
3753.00,0.0013
3740.00,0.0012
3727.00,0.0013
3714.00,0.0012
3701.00,0.0013
3688.00,0.0012
3675.00,0.0012
3662.00,0.0014
3649.00,0.0012
3636.00,0.0013
3623.00,0.0013
3610.00,0.0012
3597.00,0.0013
3584.00,0.0014
3571.00,0.0015
3558.00,0.0016
3545.00,0.0017
3532.00,0.0017
3519.00,0.0018
3506.00,0.0020
3493.00,0.0020
3480.00,0.0021
3467.00,0.0021
3454.00,0.0022
3441.00,0.0023
3428.00,0.0023
3415.00,0.0023
3402.00,0.0024
3389.00,0.0023
3376.00,0.0024
3363.00,0.0024
3350.00,0.0025
3337.00,0.0025
3324.00,0.0026
3311.00,0.0026
3298.00,0.0026
3285.00,0.0026
3272.00,0.0026
3259.00,0.0025
3246.00,0.0025
3233.00,0.0023
3220.00,0.0024
3207.00,0.0024
3194.00,0.0023
3181.00,0.0022
3168.00,0.0022
3155.00,0.0021
3142.00,0.0021
3129.00,0.0021
3116.00,0.0024
3103.00,0.0038
3090.00,0.0050
3077.00,0.0065
3064.00,0.0092
3051.00,0.0069
3038.00,0.0076
3025.00,0.0189
3012.00,0.0064
2999.00,0.0062
2986.00,0.0043
2973.00,0.0051
2960.00,0.0076
2947.00,0.0113
2934.00,0.0213
2921.00,0.0288
2908.00,0.0211
2895.00,0.0133
2882.00,0.0096
2869.00,0.0085
2856.00,0.0132
2843.00,0.0107
2830.00,0.0044
2817.00,0.0034
2804.00,0.0031
2791.00,0.0028
2778.00,0.0027
2765.00,0.0025
2752.00,0.0024
2739.00,0.0023
2726.00,0.0024
2713.00,0.0023
2700.00,0.0023
2687.00,0.0023
2674.00,0.0023
2661.00,0.0026
2648.00,0.0027
2635.00,0.0028
2622.00,0.0026
2609.00,0.0025
2596.00,0.0023
2583.00,0.0023
2570.00,0.0020
2557.00,0.0020
2544.00,0.0019
2531.00,0.0019
2518.00,0.0019
2505.00,0.0017
2492.00,0.0018
2479.00,0.0017
2466.00,0.0017
2453.00,0.0018
2440.00,0.0016
2427.00,0.0015
2414.00,0.0014
2401.00,0.0013
2388.00,0.0012
2375.00,0.0012
2362.00,0.0013
2349.00,0.0016
2336.00,0.0019
2323.00,0.0029
2310.00,0.0022
2297.00,0.0022
2284.00,0.0025
2271.00,0.0021
2258.00,0.0019
2245.00,0.0017
2232.00,0.0016
2219.00,0.0016
2206.00,0.0017
2193.00,0.0019
2180.00,0.0012
2167.00,0.0026
2154.00,-0.0009
2141.00,-0.0005
2128.00,0.0000
2115.00,0.0012
2102.00,0.0013
2089.00,0.0011
2076.00,0.0011
2063.00,0.0009
2050.00,0.0017
2037.00,0.0013
2024.00,0.0004
2011.00,0.0007
1998.00,0.0007
1985.00,0.0017
1972.00,0.0006
1959.00,0.0016
1946.00,0.0031
1933.00,0.0017
1920.00,0.0011
1907.00,0.0012
1894.00,0.0018
1881.00,0.0026
1868.00,0.0030
1855.00,0.0017
1842.00,0.0013
1829.00,0.0016
1816.00,0.0023
1803.00,0.0036
1790.00,0.0025
1777.00,0.0023
1764.00,0.0028
1751.00,0.0059
1738.00,0.0074
1725.00,0.0054
1712.00,0.0041
1699.00,0.0038
1686.00,0.0045
1673.00,0.0052
1660.00,0.0056
1647.00,0.0052
1634.00,0.0044
1621.00,0.0047
1608.00,0.0093
1595.00,0.0111
1582.00,0.0095
1569.00,0.0043
1556.00,0.0044
1543.00,0.0057
1530.00,0.0043
1517.00,0.0040
1504.00,0.0055
1491.00,0.0406
1478.00,0.0071
1465.00,0.0084
1452.00,0.0465
1439.00,0.0193
1426.00,0.0078
1413.00,0.0063
1400.00,0.0063
1387.00,0.0087
1374.00,0.0122
1361.00,0.0114
1348.00,0.0104
1335.00,0.0095
1322.00,0.0099
1309.00,0.0101
1296.00,0.0089
1283.00,0.0084
1270.00,0.0074
1257.00,0.0069
1244.00,0.0074
1231.00,0.0071
1218.00,0.0071
1205.00,0.0082
1192.00,0.0098
1179.00,0.0122
1166.00,0.0090
1153.00,0.0124
1140.00,0.0068
1127.00,0.0066
1114.00,0.0087
1101.00,0.0079
1088.00,0.0089
1075.00,0.0129
1062.00,0.0129
1049.00,0.0092
1036.00,0.0120
1023.00,0.0185
1010.00,0.0108
997.00,0.0090
984.00,0.0100
971.00,0.0100
958.00,0.0096
945.00,0.0090
932.00,0.0071
919.00,0.0080
906.00,0.0170
893.00,0.0074
880.00,0.0057
867.00,0.0052
854.00,0.0056
841.00,0.0095
828.00,0.0051
815.00,0.0050
802.00,0.0056
789.00,0.0092
776.00,0.0214
763.00,0.0531
750.00,0.0684
737.00,0.0314
724.00,0.0100
711.00,0.0199
698.00,0.1681
685.00,0.0675
672.00,0.0324
659.00,0.0205
646.00,0.0142
633.00,0.0151
620.00,0.0177
607.00,0.0144
594.00,0.0156
581.00,0.0190
568.00,0.0299
555.00,0.0415
542.00,0.0639
529.00,0.0475
516.00,0.0252
503.00,0.0179
490.00,0.0146
477.00,0.0129
464.00,0.0122
451.00,0.0110
438.00,0.0113
425.00,0.0105
412.00,0.0105
400.00,0.0092