Folder: Data/FTIR/Mary (part 2)

File: 2024_11_01_THCa_powder_Scan3.csv
Created as New Dataset,Sample 026 By YargerLab Date Friday, November 01 2024
cm-1,A
4000.00,0.0059
3987.00,0.0060
3974.00,0.0060
3961.00,0.0059
3948.00,0.0059
3935.00,0.0059
3922.00,0.0059
3909.00,0.0059
3896.00,0.0059
3883.00,0.0059
3870.00,0.0059
3857.00,0.0058
3844.00,0.0058
3831.00,0.0057
3818.00,0.0057
3805.00,0.0056
3792.00,0.0056
3779.00,0.0056
3766.00,0.0056
3753.00,0.0056
3740.00,0.0055
3727.00,0.0055
3714.00,0.0055
3701.00,0.0054
3688.00,0.0054
3675.00,0.0050
3662.00,0.0048
3649.00,0.0049
3636.00,0.0050
3623.00,0.0053
3610.00,0.0054
3597.00,0.0054
3584.00,0.0054
3571.00,0.0054
3558.00,0.0054
3545.00,0.0054
3532.00,0.0055
3519.00,0.0048
3506.00,0.0047
3493.00,0.0053
3480.00,0.0055
3467.00,0.0055
3454.00,0.0055
3441.00,0.0055
3428.00,0.0055
3415.00,0.0055
3402.00,0.0052
3389.00,0.0058
3376.00,0.0069
3363.00,0.0076
3350.00,0.0082
3337.00,0.0088
3324.00,0.0095
3311.00,0.0102
3298.00,0.0109
3285.00,0.0118
3272.00,0.0127
3259.00,0.0142
3246.00,0.0155
3233.00,0.0170
3220.00,0.0192
3207.00,0.0203
3194.00,0.0209
3181.00,0.0218
3168.00,0.0226
3155.00,0.0238
3142.00,0.0256
3129.00,0.0276
3116.00,0.0287
3103.00,0.0308
3090.00,0.0331
3077.00,0.0371
3064.00,0.0399
3051.00,0.0406
3038.00,0.0420
3025.00,0.0431
3012.00,0.0434
2999.00,0.0443
2986.00,0.0539
2973.00,0.0634
2960.00,0.0761
2947.00,0.0761
2934.00,0.0893
2921.00,0.0897
2908.00,0.0784
2895.00,0.0772
2882.00,0.0739
2869.00,0.0771
2856.00,0.0717
2843.00,0.0646
2830.00,0.0660
2817.00,0.0542
2804.00,0.0494
2791.00,0.0459
2778.00,0.0423
2765.00,0.0400
2752.00,0.0391
2739.00,0.0386
2726.00,0.0384
2713.00,0.0365
2700.00,0.0359
2687.00,0.0363
2674.00,0.0360
2661.00,0.0356
2648.00,0.0352
2635.00,0.0344
2622.00,0.0337
2609.00,0.0336
2596.00,0.0334
2583.00,0.0351
2570.00,0.0360
2557.00,0.0354
2544.00,0.0349
2531.00,0.0338
2518.00,0.0333
2505.00,0.0308
2492.00,0.0272
2479.00,0.0245
2466.00,0.0226
2453.00,0.0215
2440.00,0.0200
2427.00,0.0186
2414.00,0.0174
2401.00,0.0163
2388.00,0.0155
2375.00,0.0148
2362.00,0.0142
2349.00,0.0137
2336.00,0.0132
2323.00,0.0127
2310.00,0.0122
2297.00,0.0117
2284.00,0.0113
2271.00,0.0106
2258.00,0.0098
2245.00,0.0094
2232.00,0.0090
2219.00,0.0090
2206.00,0.0091
2193.00,0.0089
2180.00,0.0089
2167.00,0.0086
2154.00,0.0074
2141.00,0.0079
2128.00,0.0081
2115.00,0.0083
2102.00,0.0080
2089.00,0.0079
2076.00,0.0075
2063.00,0.0075
2050.00,0.0076
2037.00,0.0075
2024.00,0.0073
2011.00,0.0064
1998.00,0.0068
1985.00,0.0070
1972.00,0.0070
1959.00,0.0068
1946.00,0.0068
1933.00,0.0072
1920.00,0.0076
1907.00,0.0079
1894.00,0.0079
1881.00,0.0080
1868.00,0.0082
1855.00,0.0085
1842.00,0.0086
1829.00,0.0086
1816.00,0.0085
1803.00,0.0090
1790.00,0.0091
1777.00,0.0092
1764.00,0.0095
1751.00,0.0097
1738.00,0.0097
1725.00,0.0098
1712.00,0.0098
1699.00,0.0113
1686.00,0.0128
1673.00,0.0166
1660.00,0.0221
1647.00,0.0295
1634.00,0.0683
1621.00,0.1750
1608.00,0.2405
1595.00,0.1369
1582.00,0.0842
1569.00,0.1324
1556.00,0.0705
1543.00,0.0396
1530.00,0.0347
1517.00,0.0382
1504.00,0.0470
1491.00,0.0518
1478.00,0.0453
1465.00,0.0942
1452.00,0.1044
1439.00,0.1002
1426.00,0.0742
1413.00,0.0512
1400.00,0.0971
1387.00,0.0839
1374.00,0.1310
1361.00,0.1185
1348.00,0.0728
1335.00,0.0447
1322.00,0.0522
1309.00,0.0495
1296.00,0.0600
1283.00,0.0941
1270.00,0.1648
1257.00,0.2511
1244.00,0.2328
1231.00,0.1578
1218.00,0.0824
1205.00,0.0674
1192.00,0.1816
1179.00,0.1296
1166.00,0.0716
1153.00,0.0498
1140.00,0.0646
1127.00,0.1497
1114.00,0.1539
1101.00,0.0719
1088.00,0.0438
1075.00,0.0883
1062.00,0.0490
1049.00,0.0613
1036.00,0.0699
1023.00,0.0380
1010.00,0.0457
997.00,0.0379
984.00,0.0314
971.00,0.0388
958.00,0.0319
945.00,0.0536
932.00,0.0522
919.00,0.0693
906.00,0.1086
893.00,0.0983
880.00,0.0605
867.00,0.0604
854.00,0.1072
841.00,0.0862
828.00,0.0751
815.00,0.0597
802.00,0.0472
789.00,0.0672
776.00,0.0782
763.00,0.0707
750.00,0.0637
737.00,0.0733
724.00,0.0900
711.00,0.1342
698.00,0.0641
685.00,0.0460
672.00,0.0374
659.00,0.0498
646.00,0.0556
633.00,0.0473
620.00,0.0498
607.00,0.0408
594.00,0.0764
581.00,0.0338
568.00,0.0404
555.00,0.0331
542.00,0.0328
529.00,0.0335
516.00,0.0299
503.00,0.0760
490.00,0.0609
477.00,0.0404
464.00,0.0350
451.00,0.0310
438.00,0.0567
425.00,0.0787
412.00,0.0650
400.00,0.0426

File: 2025_06_10_Standard_Polystyrene_1.csv
Created as New Dataset,Sample 641 By YargerLab Date Tuesday, June 10 2025
cm-1,A
4000.00,0.0018
3987.00,0.0017
3974.00,0.0016
3961.00,0.0016
3948.00,0.0014
3935.00,0.0014
3922.00,0.0014
3909.00,0.0015
3896.00,0.0011
3883.00,0.0009
3870.00,0.0008
3857.00,0.0016
3844.00,0.0008
3831.00,0.0009
3818.00,0.0008
3805.00,0.0011
3792.00,0.0014
3779.00,0.0012
3766.00,0.0010
3753.00,0.0004
3740.00,-0.0003
3727.00,0.0003
3714.00,0.0008
3701.00,0.0010
3688.00,0.0006
3675.00,0.0003
3662.00,0.0009
3649.00,-0.0003
3636.00,0.0007
3623.00,0.0004
3610.00,-0.0000
3597.00,0.0005
3584.00,0.0005
3571.00,0.0007
3558.00,0.0011
3545.00,0.0009
3532.00,0.0013
3519.00,0.0015
3506.00,0.0015
3493.00,0.0018
3480.00,0.0019
3467.00,0.0021
3454.00,0.0023
3441.00,0.0023
3428.00,0.0025
3415.00,0.0025
3402.00,0.0027
3389.00,0.0027
3376.00,0.0029
3363.00,0.0029
3350.00,0.0031
3337.00,0.0032
3324.00,0.0032
3311.00,0.0031
3298.00,0.0032
3285.00,0.0032
3272.00,0.0030
3259.00,0.0030
3246.00,0.0028
3233.00,0.0026
3220.00,0.0025
3207.00,0.0024
3194.00,0.0023
3181.00,0.0023
3168.00,0.0023
3155.00,0.0021
3142.00,0.0021
3129.00,0.0021
3116.00,0.0021
3103.00,0.0033
3090.00,0.0041
3077.00,0.0055
3064.00,0.0074
3051.00,0.0057
3038.00,0.0062
3025.00,0.0155
3012.00,0.0048
2999.00,0.0040
2986.00,0.0018
2973.00,0.0020
2960.00,0.0044
2947.00,0.0077
2934.00,0.0153
2921.00,0.0210
2908.00,0.0155
2895.00,0.0095
2882.00,0.0068
2869.00,0.0061
2856.00,0.0094
2843.00,0.0081
2830.00,0.0034
2817.00,0.0028
2804.00,0.0026
2791.00,0.0024
2778.00,0.0023
2765.00,0.0022
2752.00,0.0022
2739.00,0.0022
2726.00,0.0022
2713.00,0.0022
2700.00,0.0022
2687.00,0.0021
2674.00,0.0021
2661.00,0.0023
2648.00,0.0025
2635.00,0.0024
2622.00,0.0023
2609.00,0.0022
2596.00,0.0021
2583.00,0.0020
2570.00,0.0020
2557.00,0.0018
2544.00,0.0017
2531.00,0.0016
2518.00,0.0016
2505.00,0.0017
2492.00,0.0016
2479.00,0.0015
2466.00,0.0014
2453.00,0.0015
2440.00,0.0015
2427.00,0.0013
2414.00,0.0014
2401.00,0.0012
2388.00,0.0012
2375.00,0.0012
2362.00,0.0014
2349.00,0.0016
2336.00,0.0019
2323.00,0.0025
2310.00,0.0018
2297.00,0.0019
2284.00,0.0021
2271.00,0.0016
2258.00,0.0016
2245.00,0.0012
2232.00,0.0011
2219.00,0.0010
2206.00,0.0013
2193.00,0.0010
2180.00,0.0009
2167.00,0.0020
2154.00,-0.0010
2141.00,-0.0003
2128.00,-0.0001
2115.00,0.0008
2102.00,0.0009
2089.00,0.0009
2076.00,0.0009
2063.00,0.0009
2050.00,0.0013
2037.00,0.0002
2024.00,0.0002
2011.00,0.0001
1998.00,0.0001
1985.00,0.0011
1972.00,0.0001
1959.00,0.0006
1946.00,0.0021
1933.00,0.0013
1920.00,0.0008
1907.00,0.0009
1894.00,0.0012
1881.00,0.0018
1868.00,0.0024
1855.00,0.0012
1842.00,0.0008
1829.00,0.0015
1816.00,0.0019
1803.00,0.0031
1790.00,0.0020
1777.00,0.0019
1764.00,0.0029
1751.00,0.0047
1738.00,0.0063
1725.00,0.0048
1712.00,0.0035
1699.00,0.0025
1686.00,0.0023
1673.00,0.0030
1660.00,0.0032
1647.00,0.0029
1634.00,0.0030
1621.00,0.0033
1608.00,0.0069
1595.00,0.0087
1582.00,0.0069
1569.00,0.0029
1556.00,0.0027
1543.00,0.0034
1530.00,0.0020
1517.00,0.0024
1504.00,0.0038
1491.00,0.0321
1478.00,0.0050
1465.00,0.0060
1452.00,0.0367
1439.00,0.0148
1426.00,0.0060
1413.00,0.0049
1400.00,0.0043
1387.00,0.0066
1374.00,0.0098
1361.00,0.0093
1348.00,0.0084
1335.00,0.0082
1322.00,0.0088
1309.00,0.0089
1296.00,0.0076
1283.00,0.0071
1270.00,0.0064
1257.00,0.0061
1244.00,0.0066
1231.00,0.0067
1218.00,0.0057
1205.00,0.0069
1192.00,0.0080
1179.00,0.0098
1166.00,0.0079
1153.00,0.0111
1140.00,0.0061
1127.00,0.0065
1114.00,0.0093
1101.00,0.0096
1088.00,0.0101
1075.00,0.0138
1062.00,0.0151
1049.00,0.0126
1036.00,0.0153
1023.00,0.0213
1010.00,0.0140
997.00,0.0122
984.00,0.0127
971.00,0.0110
958.00,0.0096
945.00,0.0088
932.00,0.0072
919.00,0.0081
906.00,0.0158
893.00,0.0073
880.00,0.0057
867.00,0.0051
854.00,0.0052
841.00,0.0086
828.00,0.0048
815.00,0.0049
802.00,0.0056
789.00,0.0086
776.00,0.0185
763.00,0.0443
750.00,0.0558
737.00,0.0257
724.00,0.0092
711.00,0.0177
698.00,0.1365
685.00,0.0565
672.00,0.0276
659.00,0.0182
646.00,0.0125
633.00,0.0136
620.00,0.0162
607.00,0.0137
594.00,0.0148
581.00,0.0176
568.00,0.0270
555.00,0.0378
542.00,0.0557
529.00,0.0417
516.00,0.0233
503.00,0.0162
490.00,0.0135
477.00,0.0121
464.00,0.0119
451.00,0.0114
438.00,0.0099
425.00,0.0101
412.00,0.0107
400.00,0.0004

File: 2025_06_10_Standard_Polystyrene_2.csv
Created as New Dataset,Sample 642 By YargerLab Date Tuesday, June 10 2025
cm-1,A
4000.00,0.0019
3987.00,0.0018
3974.00,0.0018
3961.00,0.0017
3948.00,0.0016
3935.00,0.0014
3922.00,0.0015
3909.00,0.0017
3896.00,0.0012
3883.00,0.0010
3870.00,0.0008
3857.00,0.0015
3844.00,0.0010
3831.00,0.0010
3818.00,0.0008
3805.00,0.0012
3792.00,0.0015
3779.00,0.0013
3766.00,0.0011
3753.00,0.0005
3740.00,-0.0002
3727.00,0.0005
3714.00,0.0008
3701.00,0.0012
3688.00,0.0006
3675.00,0.0003
3662.00,0.0011
3649.00,-0.0002
3636.00,0.0009
3623.00,0.0006
3610.00,0.0001
3597.00,0.0008
3584.00,0.0008
3571.00,0.0011
3558.00,0.0015
3545.00,0.0012
3532.00,0.0017
3519.00,0.0018
3506.00,0.0018
3493.00,0.0022
3480.00,0.0024
3467.00,0.0026
3454.00,0.0028
3441.00,0.0028
3428.00,0.0030
3415.00,0.0031
3402.00,0.0034
3389.00,0.0034
3376.00,0.0036
3363.00,0.0038
3350.00,0.0039
3337.00,0.0041
3324.00,0.0040
3311.00,0.0040
3298.00,0.0041
3285.00,0.0041
3272.00,0.0039
3259.00,0.0038
3246.00,0.0035
3233.00,0.0033
3220.00,0.0031
3207.00,0.0029
3194.00,0.0029
3181.00,0.0029
3168.00,0.0028
3155.00,0.0026
3142.00,0.0025
3129.00,0.0025
3116.00,0.0025
3103.00,0.0035
3090.00,0.0042
3077.00,0.0054
3064.00,0.0072
3051.00,0.0057
3038.00,0.0061
3025.00,0.0145
3012.00,0.0048
2999.00,0.0040
2986.00,0.0021
2973.00,0.0022
2960.00,0.0044
2947.00,0.0075
2934.00,0.0143
2921.00,0.0197
2908.00,0.0148
2895.00,0.0093
2882.00,0.0068
2869.00,0.0061
2856.00,0.0091
2843.00,0.0079
2830.00,0.0037
2817.00,0.0032
2804.00,0.0029
2791.00,0.0027
2778.00,0.0026
2765.00,0.0025
2752.00,0.0025
2739.00,0.0025
2726.00,0.0024
2713.00,0.0025
2700.00,0.0025
2687.00,0.0024
2674.00,0.0024
2661.00,0.0027
2648.00,0.0027
2635.00,0.0027
2622.00,0.0026
2609.00,0.0024
2596.00,0.0023
2583.00,0.0023
2570.00,0.0022
2557.00,0.0021
2544.00,0.0020
2531.00,0.0019
2518.00,0.0019
2505.00,0.0018
2492.00,0.0018
2479.00,0.0019
2466.00,0.0017
2453.00,0.0019
2440.00,0.0018
2427.00,0.0016
2414.00,0.0015
2401.00,0.0015
2388.00,0.0014
2375.00,0.0015
2362.00,0.0017
2349.00,0.0019
2336.00,0.0021
2323.00,0.0028
2310.00,0.0021
2297.00,0.0021
2284.00,0.0022
2271.00,0.0018
2258.00,0.0018
2245.00,0.0016
2232.00,0.0017
2219.00,0.0014
2206.00,0.0014
2193.00,0.0014
2180.00,0.0011
2167.00,0.0019
2154.00,-0.0006
2141.00,-0.0001
2128.00,0.0003
2115.00,0.0010
2102.00,0.0012
2089.00,0.0013
2076.00,0.0011
2063.00,0.0011
2050.00,0.0014
2037.00,0.0007
2024.00,0.0001
2011.00,0.0008
1998.00,0.0006
1985.00,0.0012
1972.00,0.0005
1959.00,0.0007
1946.00,0.0018
1933.00,0.0017
1920.00,0.0009
1907.00,0.0012
1894.00,0.0014
1881.00,0.0020
1868.00,0.0025
1855.00,0.0015
1842.00,0.0011
1829.00,0.0016
1816.00,0.0022
1803.00,0.0032
1790.00,0.0021
1777.00,0.0021
1764.00,0.0030
1751.00,0.0047
1738.00,0.0065
1725.00,0.0054
1712.00,0.0044
1699.00,0.0032
1686.00,0.0029
1673.00,0.0037
1660.00,0.0039
1647.00,0.0037
1634.00,0.0037
1621.00,0.0040
1608.00,0.0073
1595.00,0.0091
1582.00,0.0072
1569.00,0.0034
1556.00,0.0034
1543.00,0.0040
1530.00,0.0027
1517.00,0.0031
1504.00,0.0044
1491.00,0.0316
1478.00,0.0055
1465.00,0.0065
1452.00,0.0365
1439.00,0.0151
1426.00,0.0067
1413.00,0.0056
1400.00,0.0049
1387.00,0.0070
1374.00,0.0103
1361.00,0.0098
1348.00,0.0090
1335.00,0.0090
1322.00,0.0094
1309.00,0.0096
1296.00,0.0083
1283.00,0.0079
1270.00,0.0074
1257.00,0.0071
1244.00,0.0077
1231.00,0.0077
1218.00,0.0067
1205.00,0.0076
1192.00,0.0085
1179.00,0.0103
1166.00,0.0086
1153.00,0.0119
1140.00,0.0070
1127.00,0.0076
1114.00,0.0107
1101.00,0.0113
1088.00,0.0117
1075.00,0.0153
1062.00,0.0167
1049.00,0.0143
1036.00,0.0170
1023.00,0.0231
1010.00,0.0158
997.00,0.0141
984.00,0.0145
971.00,0.0125
958.00,0.0109
945.00,0.0100
932.00,0.0081
919.00,0.0089
906.00,0.0169
893.00,0.0084
880.00,0.0068
867.00,0.0061
854.00,0.0062
841.00,0.0095
828.00,0.0056
815.00,0.0057
802.00,0.0064
789.00,0.0094
776.00,0.0195
763.00,0.0461
750.00,0.0585
737.00,0.0272
724.00,0.0110
711.00,0.0193
698.00,0.1479
685.00,0.0614
672.00,0.0302
659.00,0.0204
646.00,0.0146
633.00,0.0155
620.00,0.0182
607.00,0.0157
594.00,0.0165
581.00,0.0197
568.00,0.0297
555.00,0.0407
542.00,0.0602
529.00,0.0455
516.00,0.0259
503.00,0.0179
490.00,0.0157
477.00,0.0145
464.00,0.0134
451.00,0.0130
438.00,0.0123
425.00,0.0119
412.00,0.0128
400.00,0.0010

File: 2025_06_10_Standard_Polystyrene_midset_1.csv
Created as New Dataset,Sample 649 By YargerLab Date Tuesday, June 10 2025
cm-1,A
4000.00,0.0040
3987.00,0.0040
3974.00,0.0039
3961.00,0.0039
3948.00,0.0039
3935.00,0.0040
3922.00,0.0039
3909.00,0.0039
3896.00,0.0041
3883.00,0.0038
3870.00,0.0039
3857.00,0.0038
3844.00,0.0039
3831.00,0.0038
3818.00,0.0037
3805.00,0.0038
3792.00,0.0038
3779.00,0.0038
3766.00,0.0038
3753.00,0.0037
3740.00,0.0037
3727.00,0.0038
3714.00,0.0037
3701.00,0.0036
3688.00,0.0036
3675.00,0.0039
3662.00,0.0038
3649.00,0.0039
3636.00,0.0038
3623.00,0.0040
3610.00,0.0042
3597.00,0.0043
3584.00,0.0044
3571.00,0.0045
3558.00,0.0046
3545.00,0.0048
3532.00,0.0049
3519.00,0.0053
3506.00,0.0052
3493.00,0.0054
3480.00,0.0056
3467.00,0.0057
3454.00,0.0061
3441.00,0.0061
3428.00,0.0064
3415.00,0.0068
3402.00,0.0071
3389.00,0.0074
3376.00,0.0079
3363.00,0.0084
3350.00,0.0090
3337.00,0.0100
3324.00,0.0107
3311.00,0.0113
3298.00,0.0119
3285.00,0.0119
3272.00,0.0113
3259.00,0.0104
3246.00,0.0097
3233.00,0.0092
3220.00,0.0086
3207.00,0.0083
3194.00,0.0079
3181.00,0.0074
3168.00,0.0071
3155.00,0.0066
3142.00,0.0066
3129.00,0.0064
3116.00,0.0065
3103.00,0.0077
3090.00,0.0085
3077.00,0.0098
3064.00,0.0117
3051.00,0.0100
3038.00,0.0101
3025.00,0.0188
3012.00,0.0088
2999.00,0.0085
2986.00,0.0070
2973.00,0.0075
2960.00,0.0088
2947.00,0.0113
2934.00,0.0187
2921.00,0.0259
2908.00,0.0197
2895.00,0.0135
2882.00,0.0107
2869.00,0.0095
2856.00,0.0127
2843.00,0.0117
2830.00,0.0068
2817.00,0.0061
2804.00,0.0058
2791.00,0.0054
2778.00,0.0053
2765.00,0.0051
2752.00,0.0050
2739.00,0.0050
2726.00,0.0049
2713.00,0.0048
2700.00,0.0048
2687.00,0.0048
2674.00,0.0047
2661.00,0.0049
2648.00,0.0049
2635.00,0.0049
2622.00,0.0048
2609.00,0.0047
2596.00,0.0046
2583.00,0.0044
2570.00,0.0044
2557.00,0.0043
2544.00,0.0042
2531.00,0.0042
2518.00,0.0042
2505.00,0.0041
2492.00,0.0040
2479.00,0.0040
2466.00,0.0039
2453.00,0.0040
2440.00,0.0039
2427.00,0.0037
2414.00,0.0037
2401.00,0.0036
2388.00,0.0036
2375.00,0.0035
2362.00,0.0037
2349.00,0.0037
2336.00,0.0039
2323.00,0.0044
2310.00,0.0042
2297.00,0.0041
2284.00,0.0042
2271.00,0.0039
2258.00,0.0038
2245.00,0.0037
2232.00,0.0038
2219.00,0.0039
2206.00,0.0038
2193.00,0.0037
2180.00,0.0033
2167.00,0.0043
2154.00,0.0022
2141.00,0.0023
2128.00,0.0027
2115.00,0.0032
2102.00,0.0031
2089.00,0.0030
2076.00,0.0036
2063.00,0.0028
2050.00,0.0037
2037.00,0.0032
2024.00,0.0027
2011.00,0.0006
1998.00,0.0027
1985.00,0.0041
1972.00,0.0029
1959.00,0.0033
1946.00,0.0043
1933.00,0.0035
1920.00,0.0030
1907.00,0.0029
1894.00,0.0033
1881.00,0.0039
1868.00,0.0041
1855.00,0.0032
1842.00,0.0029
1829.00,0.0030
1816.00,0.0034
1803.00,0.0042
1790.00,0.0035
1777.00,0.0030
1764.00,0.0029
1751.00,0.0031
1738.00,0.0034
1725.00,0.0032
1712.00,0.0045
1699.00,0.0097
1686.00,0.0132
1673.00,0.0167
1660.00,0.0193
1647.00,0.0211
1634.00,0.0206
1621.00,0.0168
1608.00,0.0151
1595.00,0.0146
1582.00,0.0129
1569.00,0.0108
1556.00,0.0137
1543.00,0.0170
1530.00,0.0188
1517.00,0.0194
1504.00,0.0183
1491.00,0.0441
1478.00,0.0123
1465.00,0.0122
1452.00,0.0449
1439.00,0.0218
1426.00,0.0112
1413.00,0.0100
1400.00,0.0098
1387.00,0.0118
1374.00,0.0149
1361.00,0.0138
1348.00,0.0136
1335.00,0.0124
1322.00,0.0123
1309.00,0.0128
1296.00,0.0110
1283.00,0.0106
1270.00,0.0103
1257.00,0.0100
1244.00,0.0105
1231.00,0.0120
1218.00,0.0112
1205.00,0.0105
1192.00,0.0110
1179.00,0.0124
1166.00,0.0095
1153.00,0.0128
1140.00,0.0075
1127.00,0.0075
1114.00,0.0090
1101.00,0.0094
1088.00,0.0101
1075.00,0.0140
1062.00,0.0140
1049.00,0.0106
1036.00,0.0128
1023.00,0.0197
1010.00,0.0125
997.00,0.0105
984.00,0.0111
971.00,0.0108
958.00,0.0103
945.00,0.0099
932.00,0.0080
919.00,0.0088
906.00,0.0173
893.00,0.0076
880.00,0.0060
867.00,0.0054
854.00,0.0061
841.00,0.0098
828.00,0.0064
815.00,0.0060
802.00,0.0067
789.00,0.0102
776.00,0.0212
763.00,0.0513
750.00,0.0669
737.00,0.0315
724.00,0.0120
711.00,0.0213
698.00,0.1682
685.00,0.0741
672.00,0.0362
659.00,0.0242
646.00,0.0177
633.00,0.0186
620.00,0.0210
607.00,0.0175
594.00,0.0181
581.00,0.0215
568.00,0.0325
555.00,0.0451
542.00,0.0683
529.00,0.0524
516.00,0.0288
503.00,0.0213
490.00,0.0166
477.00,0.0144
464.00,0.0136
451.00,0.0125
438.00,0.0110
425.00,0.0096
412.00,0.0106
400.00,0.0052

File: 2025_06_10_Standard_Polystyrene_midset_2.csv
Created as New Dataset,Sample 650 By YargerLab Date Tuesday, June 10 2025
cm-1,A
4000.00,0.0039
3987.00,0.0039
3974.00,0.0038
3961.00,0.0039
3948.00,0.0038
3935.00,0.0039
3922.00,0.0038
3909.00,0.0037
3896.00,0.0040
3883.00,0.0038
3870.00,0.0039
3857.00,0.0038
3844.00,0.0038
3831.00,0.0038
3818.00,0.0037
3805.00,0.0038
3792.00,0.0037
3779.00,0.0036
3766.00,0.0037
3753.00,0.0037
3740.00,0.0037
3727.00,0.0037
3714.00,0.0036
3701.00,0.0036
3688.00,0.0036
3675.00,0.0038
3662.00,0.0037
3649.00,0.0038
3636.00,0.0037
3623.00,0.0038
3610.00,0.0039
3597.00,0.0040
3584.00,0.0041
3571.00,0.0042
3558.00,0.0042
3545.00,0.0044
3532.00,0.0044
3519.00,0.0048
3506.00,0.0048
3493.00,0.0049
3480.00,0.0050
3467.00,0.0051
3454.00,0.0055
3441.00,0.0055
3428.00,0.0057
3415.00,0.0060
3402.00,0.0063
3389.00,0.0065
3376.00,0.0069
3363.00,0.0074
3350.00,0.0079
3337.00,0.0087
3324.00,0.0093
3311.00,0.0099
3298.00,0.0103
3285.00,0.0104
3272.00,0.0100
3259.00,0.0093
3246.00,0.0087
3233.00,0.0082
3220.00,0.0078
3207.00,0.0075
3194.00,0.0071
3181.00,0.0067
3168.00,0.0065
3155.00,0.0061
3142.00,0.0060
3129.00,0.0059
3116.00,0.0060
3103.00,0.0071
3090.00,0.0078
3077.00,0.0092
3064.00,0.0109
3051.00,0.0093
3038.00,0.0095
3025.00,0.0176
3012.00,0.0082
2999.00,0.0079
2986.00,0.0064
2973.00,0.0067
2960.00,0.0077
2947.00,0.0100
2934.00,0.0163
2921.00,0.0223
2908.00,0.0176
2895.00,0.0121
2882.00,0.0097
2869.00,0.0085
2856.00,0.0110
2843.00,0.0105
2830.00,0.0063
2817.00,0.0056
2804.00,0.0054
2791.00,0.0051
2778.00,0.0050
2765.00,0.0048
2752.00,0.0047
2739.00,0.0047
2726.00,0.0047
2713.00,0.0046
2700.00,0.0046
2687.00,0.0045
2674.00,0.0045
2661.00,0.0047
2648.00,0.0047
2635.00,0.0047
2622.00,0.0046
2609.00,0.0046
2596.00,0.0044
2583.00,0.0043
2570.00,0.0042
2557.00,0.0042
2544.00,0.0040
2531.00,0.0041
2518.00,0.0041
2505.00,0.0040
2492.00,0.0039
2479.00,0.0038
2466.00,0.0039
2453.00,0.0039
2440.00,0.0038
2427.00,0.0036
2414.00,0.0036
2401.00,0.0035
2388.00,0.0035
2375.00,0.0035
2362.00,0.0037
2349.00,0.0037
2336.00,0.0039
2323.00,0.0043
2310.00,0.0041
2297.00,0.0040
2284.00,0.0041
2271.00,0.0038
2258.00,0.0037
2245.00,0.0036
2232.00,0.0038
2219.00,0.0037
2206.00,0.0037
2193.00,0.0037
2180.00,0.0030
2167.00,0.0047
2154.00,0.0021
2141.00,0.0024
2128.00,0.0026
2115.00,0.0032
2102.00,0.0031
2089.00,0.0030
2076.00,0.0037
2063.00,0.0029
2050.00,0.0036
2037.00,0.0031
2024.00,0.0029
2011.00,0.0005
1998.00,0.0026
1985.00,0.0038
1972.00,0.0029
1959.00,0.0031
1946.00,0.0042
1933.00,0.0034
1920.00,0.0028
1907.00,0.0028
1894.00,0.0032
1881.00,0.0037
1868.00,0.0040
1855.00,0.0031
1842.00,0.0027
1829.00,0.0028
1816.00,0.0032
1803.00,0.0040
1790.00,0.0033
1777.00,0.0029
1764.00,0.0026
1751.00,0.0027
1738.00,0.0026
1725.00,0.0025
1712.00,0.0034
1699.00,0.0077
1686.00,0.0108
1673.00,0.0137
1660.00,0.0161
1647.00,0.0177
1634.00,0.0175
1621.00,0.0145
1608.00,0.0135
1595.00,0.0132
1582.00,0.0116
1569.00,0.0092
1556.00,0.0117
1543.00,0.0147
1530.00,0.0162
1517.00,0.0169
1504.00,0.0162
1491.00,0.0406
1478.00,0.0110
1465.00,0.0107
1452.00,0.0413
1439.00,0.0196
1426.00,0.0099
1413.00,0.0088
1400.00,0.0087
1387.00,0.0105
1374.00,0.0131
1361.00,0.0123
1348.00,0.0120
1335.00,0.0110
1322.00,0.0110
1309.00,0.0115
1296.00,0.0099
1283.00,0.0094
1270.00,0.0089
1257.00,0.0086
1244.00,0.0091
1231.00,0.0104
1218.00,0.0098
1205.00,0.0095
1192.00,0.0100
1179.00,0.0113
1166.00,0.0085
1153.00,0.0116
1140.00,0.0066
1127.00,0.0065
1114.00,0.0077
1101.00,0.0080
1088.00,0.0088
1075.00,0.0125
1062.00,0.0125
1049.00,0.0093
1036.00,0.0114
1023.00,0.0178
1010.00,0.0112
997.00,0.0095
984.00,0.0101
971.00,0.0100
958.00,0.0096
945.00,0.0092
932.00,0.0074
919.00,0.0082
906.00,0.0164
893.00,0.0071
880.00,0.0055
867.00,0.0050
854.00,0.0056
841.00,0.0092
828.00,0.0057
815.00,0.0054
802.00,0.0059
789.00,0.0094
776.00,0.0199
763.00,0.0489
750.00,0.0640
737.00,0.0298
724.00,0.0107
711.00,0.0198
698.00,0.1627
685.00,0.0720
672.00,0.0343
659.00,0.0226
646.00,0.0159
633.00,0.0168
620.00,0.0191
607.00,0.0157
594.00,0.0165
581.00,0.0197
568.00,0.0306
555.00,0.0428
542.00,0.0658
529.00,0.0502
516.00,0.0273
503.00,0.0195
490.00,0.0154
477.00,0.0134
464.00,0.0124
451.00,0.0109
438.00,0.0094
425.00,0.0082
412.00,0.0094
400.00,0.0056

File: 2025_06_11_Standard_Polystyrene_postscan1.csv
Created as New Dataset,Sample 668 By YargerLab Date Wednesday, June 11 2025
cm-1,A
4000.00,0.0015
3987.00,0.0017
3974.00,0.0014
3961.00,0.0014
3948.00,0.0014
3935.00,0.0014
3922.00,0.0015
3909.00,0.0016
3896.00,0.0014
3883.00,0.0012
3870.00,0.0015
3857.00,0.0015
3844.00,0.0014
3831.00,0.0017
3818.00,0.0013
3805.00,0.0013
3792.00,0.0013
3779.00,0.0016
3766.00,0.0015
3753.00,0.0015
3740.00,0.0014
3727.00,0.0016
3714.00,0.0015
3701.00,0.0013
3688.00,0.0012
3675.00,0.0015
3662.00,0.0013
3649.00,0.0011
3636.00,0.0012
3623.00,0.0016
3610.00,0.0009
3597.00,0.0012
3584.00,0.0011
3571.00,0.0011
3558.00,0.0012
3545.00,0.0012
3532.00,0.0014
3519.00,0.0019
3506.00,0.0012
3493.00,0.0013
3480.00,0.0014
3467.00,0.0012
3454.00,0.0015
3441.00,0.0016
3428.00,0.0014
3415.00,0.0014
3402.00,0.0014
3389.00,0.0015
3376.00,0.0015
3363.00,0.0013
3350.00,0.0014
3337.00,0.0009
3324.00,0.0010
3311.00,0.0011
3298.00,0.0007
3285.00,0.0007
3272.00,0.0009
3259.00,0.0008
3246.00,0.0012
3233.00,0.0014
3220.00,0.0014
3207.00,0.0014
3194.00,0.0017
3181.00,0.0016
3168.00,0.0017
3155.00,0.0018
3142.00,0.0017
3129.00,0.0018
3116.00,0.0019
3103.00,0.0031
3090.00,0.0041
3077.00,0.0050
3064.00,0.0069
3051.00,0.0054
3038.00,0.0059
3025.00,0.0148
3012.00,0.0050
2999.00,0.0047
2986.00,0.0029
2973.00,0.0030
2960.00,0.0038
2947.00,0.0062
2934.00,0.0122
2921.00,0.0164
2908.00,0.0126
2895.00,0.0078
2882.00,0.0059
2869.00,0.0046
2856.00,0.0066
2843.00,0.0065
2830.00,0.0030
2817.00,0.0023
2804.00,0.0022
2791.00,0.0022
2778.00,0.0021
2765.00,0.0017
2752.00,0.0018
2739.00,0.0018
2726.00,0.0018
2713.00,0.0017
2700.00,0.0019
2687.00,0.0018
2674.00,0.0017
2661.00,0.0021
2648.00,0.0022
2635.00,0.0019
2622.00,0.0020
2609.00,0.0019
2596.00,0.0017
2583.00,0.0017
2570.00,0.0018
2557.00,0.0014
2544.00,0.0014
2531.00,0.0013
2518.00,0.0015
2505.00,0.0010
2492.00,0.0014
2479.00,0.0015
2466.00,0.0012
2453.00,0.0015
2440.00,0.0012
2427.00,0.0013
2414.00,0.0010
2401.00,0.0011
2388.00,0.0010
2375.00,0.0009
2362.00,0.0009
2349.00,0.0009
2336.00,0.0012
2323.00,0.0019
2310.00,0.0016
2297.00,0.0017
2284.00,0.0018
2271.00,0.0016
2258.00,0.0010
2245.00,0.0011
2232.00,0.0011
2219.00,0.0007
2206.00,0.0012
2193.00,0.0011
2180.00,0.0001
2167.00,0.0028
2154.00,-0.0012
2141.00,0.0005
2128.00,-0.0002
2115.00,0.0007
2102.00,0.0008
2089.00,0.0008
2076.00,0.0009
2063.00,0.0011
2050.00,0.0019
2037.00,0.0012
2024.00,0.0003
2011.00,0.0003
1998.00,0.0010
1985.00,0.0012
1972.00,0.0005
1959.00,0.0005
1946.00,0.0021
1933.00,0.0015
1920.00,0.0013
1907.00,0.0006
1894.00,0.0011
1881.00,0.0020
1868.00,0.0022
1855.00,0.0013
1842.00,0.0010
1829.00,0.0014
1816.00,0.0017
1803.00,0.0024
1790.00,0.0018
1777.00,0.0014
1764.00,0.0014
1751.00,0.0022
1738.00,0.0025
1725.00,0.0020
1712.00,0.0018
1699.00,0.0017
1686.00,0.0023
1673.00,0.0026
1660.00,0.0024
1647.00,0.0021
1634.00,0.0022
1621.00,0.0031
1608.00,0.0073
1595.00,0.0087
1582.00,0.0070
1569.00,0.0028
1556.00,0.0028
1543.00,0.0035
1530.00,0.0027
1517.00,0.0023
1504.00,0.0040
1491.00,0.0320
1478.00,0.0052
1465.00,0.0052
1452.00,0.0354
1439.00,0.0138
1426.00,0.0048
1413.00,0.0041
1400.00,0.0043
1387.00,0.0062
1374.00,0.0086
1361.00,0.0079
1348.00,0.0073
1335.00,0.0066
1322.00,0.0070
1309.00,0.0071
1296.00,0.0058
1283.00,0.0054
1270.00,0.0044
1257.00,0.0035
1244.00,0.0043
1231.00,0.0039
1218.00,0.0043
1205.00,0.0054
1192.00,0.0067
1179.00,0.0082
1166.00,0.0048
1153.00,0.0081
1140.00,0.0039
1127.00,0.0034
1114.00,0.0046
1101.00,0.0044
1088.00,0.0062
1075.00,0.0097
1062.00,0.0089
1049.00,0.0058
1036.00,0.0077
1023.00,0.0139
1010.00,0.0066
997.00,0.0053
984.00,0.0062
971.00,0.0070
958.00,0.0070
945.00,0.0069
932.00,0.0051
919.00,0.0063
906.00,0.0145
893.00,0.0058
880.00,0.0042
867.00,0.0036
854.00,0.0039
841.00,0.0073
828.00,0.0034
815.00,0.0037
802.00,0.0039
789.00,0.0071
776.00,0.0173
763.00,0.0439
750.00,0.0566
737.00,0.0247
724.00,0.0071
711.00,0.0151
698.00,0.1418
685.00,0.0587
672.00,0.0266
659.00,0.0161
646.00,0.0103
633.00,0.0108
620.00,0.0128
607.00,0.0101
594.00,0.0110
581.00,0.0144
568.00,0.0241
555.00,0.0345
542.00,0.0550
529.00,0.0411
516.00,0.0201
503.00,0.0215
490.00,0.0116
477.00,0.0095
464.00,0.0093
451.00,0.0070
438.00,0.0075
425.00,0.0063
412.00,0.0056
400.00,-0.0000