Folder: Data/FTIR/Olivia (part 9)

File: 2025_07_26_Polystyrene_Std_scan2.csv
Created as New Dataset,Sample 918 By YargerLab Date Saturday, July 26 2025
cm-1,A
4000.00,0.0009
3987.00,0.0008
3974.00,0.0008
3961.00,0.0009
3948.00,0.0008
3935.00,0.0008
3922.00,0.0008
3909.00,0.0008
3896.00,0.0007
3883.00,0.0007
3870.00,0.0008
3857.00,0.0008
3844.00,0.0008
3831.00,0.0008
3818.00,0.0009
3805.00,0.0009
3792.00,0.0009
3779.00,0.0009
3766.00,0.0009
3753.00,0.0008
3740.00,0.0007
3727.00,0.0008
3714.00,0.0007
3701.00,0.0007
3688.00,0.0007
3675.00,0.0006
3662.00,0.0007
3649.00,0.0007
3636.00,0.0007
3623.00,0.0008
3610.00,0.0007
3597.00,0.0008
3584.00,0.0008
3571.00,0.0008
3558.00,0.0009
3545.00,0.0009
3532.00,0.0010
3519.00,0.0010
3506.00,0.0011
3493.00,0.0012
3480.00,0.0012
3467.00,0.0013
3454.00,0.0013
3441.00,0.0013
3428.00,0.0013
3415.00,0.0013
3402.00,0.0013
3389.00,0.0012
3376.00,0.0012
3363.00,0.0012
3350.00,0.0012
3337.00,0.0013
3324.00,0.0012
3311.00,0.0012
3298.00,0.0012
3285.00,0.0012
3272.00,0.0012
3259.00,0.0012
3246.00,0.0011
3233.00,0.0011
3220.00,0.0011
3207.00,0.0012
3194.00,0.0011
3181.00,0.0011
3168.00,0.0011
3155.00,0.0011
3142.00,0.0010
3129.00,0.0011
3116.00,0.0015
3103.00,0.0033
3090.00,0.0047
3077.00,0.0067
3064.00,0.0100
3051.00,0.0072
3038.00,0.0081
3025.00,0.0222
3012.00,0.0061
2999.00,0.0055
2986.00,0.0027
2973.00,0.0031
2960.00,0.0051
2947.00,0.0096
2934.00,0.0196
2921.00,0.0271
2908.00,0.0207
2895.00,0.0122
2882.00,0.0085
2869.00,0.0068
2856.00,0.0103
2843.00,0.0097
2830.00,0.0033
2817.00,0.0024
2804.00,0.0021
2791.00,0.0018
2778.00,0.0017
2765.00,0.0015
2752.00,0.0014
2739.00,0.0014
2726.00,0.0015
2713.00,0.0015
2700.00,0.0014
2687.00,0.0014
2674.00,0.0014
2661.00,0.0017
2648.00,0.0019
2635.00,0.0019
2622.00,0.0018
2609.00,0.0017
2596.00,0.0016
2583.00,0.0015
2570.00,0.0013
2557.00,0.0012
2544.00,0.0011
2531.00,0.0011
2518.00,0.0011
2505.00,0.0010
2492.00,0.0010
2479.00,0.0009
2466.00,0.0008
2453.00,0.0010
2440.00,0.0007
2427.00,0.0007
2414.00,0.0006
2401.00,0.0004
2388.00,0.0004
2375.00,0.0004
2362.00,0.0005
2349.00,0.0007
2336.00,0.0011
2323.00,0.0022
2310.00,0.0015
2297.00,0.0015
2284.00,0.0016
2271.00,0.0011
2258.00,0.0012
2245.00,0.0008
2232.00,0.0008
2219.00,0.0007
2206.00,0.0006
2193.00,0.0009
2180.00,-0.0001
2167.00,0.0014
2154.00,-0.0018
2141.00,-0.0014
2128.00,-0.0009
2115.00,0.0004
2102.00,0.0002
2089.00,0.0003
2076.00,0.0003
2063.00,0.0000
2050.00,0.0007
2037.00,0.0002
2024.00,-0.0002
2011.00,0.0001
1998.00,-0.0002
1985.00,0.0008
1972.00,-0.0000
1959.00,0.0007
1946.00,0.0024
1933.00,0.0012
1920.00,0.0002
1907.00,0.0003
1894.00,0.0009
1881.00,0.0020
1868.00,0.0024
1855.00,0.0009
1842.00,0.0005
1829.00,0.0008
1816.00,0.0015
1803.00,0.0029
1790.00,0.0017
1777.00,0.0016
1764.00,0.0019
1751.00,0.0034
1738.00,0.0043
1725.00,0.0035
1712.00,0.0027
1699.00,0.0023
1686.00,0.0026
1673.00,0.0028
1660.00,0.0026
1647.00,0.0020
1634.00,0.0019
1621.00,0.0022
1608.00,0.0079
1595.00,0.0102
1582.00,0.0080
1569.00,0.0021
1556.00,0.0020
1543.00,0.0028
1530.00,0.0018
1517.00,0.0017
1504.00,0.0040
1491.00,0.0438
1478.00,0.0054
1465.00,0.0058
1452.00,0.0495
1439.00,0.0183
1426.00,0.0056
1413.00,0.0040
1400.00,0.0037
1387.00,0.0065
1374.00,0.0105
1361.00,0.0098
1348.00,0.0087
1335.00,0.0078
1322.00,0.0083
1309.00,0.0084
1296.00,0.0068
1283.00,0.0062
1270.00,0.0049
1257.00,0.0045
1244.00,0.0047
1231.00,0.0045
1218.00,0.0046
1205.00,0.0060
1192.00,0.0074
1179.00,0.0096
1166.00,0.0059
1153.00,0.0098
1140.00,0.0042
1127.00,0.0040
1114.00,0.0054
1101.00,0.0055
1088.00,0.0067
1075.00,0.0112
1062.00,0.0109
1049.00,0.0071
1036.00,0.0103
1023.00,0.0173
1010.00,0.0092
997.00,0.0072
984.00,0.0081
971.00,0.0078
958.00,0.0075
945.00,0.0074
932.00,0.0052
919.00,0.0063
906.00,0.0154
893.00,0.0054
880.00,0.0037
867.00,0.0031
854.00,0.0036
841.00,0.0075
828.00,0.0030
815.00,0.0031
802.00,0.0035
789.00,0.0073
776.00,0.0197
763.00,0.0510
750.00,0.0646
737.00,0.0280
724.00,0.0071
711.00,0.0180
698.00,0.1495
685.00,0.0551
672.00,0.0257
659.00,0.0155
646.00,0.0102
633.00,0.0112
620.00,0.0134
607.00,0.0104
594.00,0.0118
581.00,0.0149
568.00,0.0254
555.00,0.0362
542.00,0.0555
529.00,0.0388
516.00,0.0194
503.00,0.0126
490.00,0.0095
477.00,0.0085
464.00,0.0085
451.00,0.0080
438.00,0.0074
425.00,0.0071
412.00,0.0077
400.00,0.0053

File: 2025_07_26_Polystyrene_Std_scan3.csv
Created as New Dataset,Sample 919 By YargerLab Date Saturday, July 26 2025
cm-1,A
4000.00,0.0007
3987.00,0.0007
3974.00,0.0007
3961.00,0.0007
3948.00,0.0007
3935.00,0.0007
3922.00,0.0007
3909.00,0.0007
3896.00,0.0006
3883.00,0.0006
3870.00,0.0006
3857.00,0.0007
3844.00,0.0006
3831.00,0.0006
3818.00,0.0007
3805.00,0.0007
3792.00,0.0007
3779.00,0.0008
3766.00,0.0007
3753.00,0.0007
3740.00,0.0005
3727.00,0.0006
3714.00,0.0006
3701.00,0.0006
3688.00,0.0006
3675.00,0.0005
3662.00,0.0005
3649.00,0.0005
3636.00,0.0006
3623.00,0.0006
3610.00,0.0005
3597.00,0.0006
3584.00,0.0006
3571.00,0.0007
3558.00,0.0008
3545.00,0.0008
3532.00,0.0008
3519.00,0.0009
3506.00,0.0009
3493.00,0.0010
3480.00,0.0010
3467.00,0.0012
3454.00,0.0011
3441.00,0.0012
3428.00,0.0012
3415.00,0.0011
3402.00,0.0011
3389.00,0.0011
3376.00,0.0011
3363.00,0.0011
3350.00,0.0011
3337.00,0.0011
3324.00,0.0011
3311.00,0.0011
3298.00,0.0012
3285.00,0.0011
3272.00,0.0011
3259.00,0.0010
3246.00,0.0010
3233.00,0.0010
3220.00,0.0010
3207.00,0.0011
3194.00,0.0010
3181.00,0.0010
3168.00,0.0011
3155.00,0.0010
3142.00,0.0010
3129.00,0.0010
3116.00,0.0015
3103.00,0.0034
3090.00,0.0049
3077.00,0.0071
3064.00,0.0107
3051.00,0.0076
3038.00,0.0086
3025.00,0.0240
3012.00,0.0064
2999.00,0.0058
2986.00,0.0026
2973.00,0.0030
2960.00,0.0053
2947.00,0.0102
2934.00,0.0212
2921.00,0.0291
2908.00,0.0219
2895.00,0.0128
2882.00,0.0087
2869.00,0.0070
2856.00,0.0108
2843.00,0.0100
2830.00,0.0032
2817.00,0.0023
2804.00,0.0021
2791.00,0.0018
2778.00,0.0017
2765.00,0.0014
2752.00,0.0014
2739.00,0.0014
2726.00,0.0014
2713.00,0.0014
2700.00,0.0014
2687.00,0.0014
2674.00,0.0014
2661.00,0.0017
2648.00,0.0019
2635.00,0.0020
2622.00,0.0018
2609.00,0.0016
2596.00,0.0015
2583.00,0.0014
2570.00,0.0012
2557.00,0.0011
2544.00,0.0011
2531.00,0.0010
2518.00,0.0010
2505.00,0.0010
2492.00,0.0010
2479.00,0.0008
2466.00,0.0007
2453.00,0.0009
2440.00,0.0007
2427.00,0.0006
2414.00,0.0005
2401.00,0.0004
2388.00,0.0003
2375.00,0.0003
2362.00,0.0005
2349.00,0.0007
2336.00,0.0011
2323.00,0.0022
2310.00,0.0015
2297.00,0.0014
2284.00,0.0017
2271.00,0.0011
2258.00,0.0011
2245.00,0.0008
2232.00,0.0009
2219.00,0.0006
2206.00,0.0006
2193.00,0.0010
2180.00,0.0000
2167.00,0.0016
2154.00,-0.0018
2141.00,-0.0014
2128.00,-0.0010
2115.00,0.0002
2102.00,0.0002
2089.00,0.0001
2076.00,0.0002
2063.00,0.0000
2050.00,0.0005
2037.00,0.0002
2024.00,-0.0003
2011.00,-0.0004
1998.00,-0.0001
1985.00,0.0010
1972.00,-0.0004
1959.00,0.0008
1946.00,0.0025
1933.00,0.0011
1920.00,0.0003
1907.00,0.0001
1894.00,0.0009
1881.00,0.0021
1868.00,0.0025
1855.00,0.0009
1842.00,0.0004
1829.00,0.0008
1816.00,0.0016
1803.00,0.0031
1790.00,0.0018
1777.00,0.0016
1764.00,0.0019
1751.00,0.0035
1738.00,0.0045
1725.00,0.0036
1712.00,0.0027
1699.00,0.0024
1686.00,0.0026
1673.00,0.0029
1660.00,0.0026
1647.00,0.0021
1634.00,0.0019
1621.00,0.0023
1608.00,0.0083
1595.00,0.0108
1582.00,0.0084
1569.00,0.0021
1556.00,0.0021
1543.00,0.0029
1530.00,0.0019
1517.00,0.0017
1504.00,0.0042
1491.00,0.0467
1478.00,0.0056
1465.00,0.0059
1452.00,0.0527
1439.00,0.0192
1426.00,0.0056
1413.00,0.0041
1400.00,0.0039
1387.00,0.0069
1374.00,0.0110
1361.00,0.0103
1348.00,0.0092
1335.00,0.0082
1322.00,0.0087
1309.00,0.0088
1296.00,0.0071
1283.00,0.0065
1270.00,0.0052
1257.00,0.0046
1244.00,0.0048
1231.00,0.0047
1218.00,0.0048
1205.00,0.0062
1192.00,0.0078
1179.00,0.0101
1166.00,0.0061
1153.00,0.0102
1140.00,0.0042
1127.00,0.0041
1114.00,0.0056
1101.00,0.0057
1088.00,0.0070
1075.00,0.0117
1062.00,0.0113
1049.00,0.0074
1036.00,0.0107
1023.00,0.0183
1010.00,0.0096
997.00,0.0074
984.00,0.0084
971.00,0.0082
958.00,0.0078
945.00,0.0076
932.00,0.0054
919.00,0.0065
906.00,0.0162
893.00,0.0056
880.00,0.0038
867.00,0.0032
854.00,0.0037
841.00,0.0079
828.00,0.0031
815.00,0.0031
802.00,0.0037
789.00,0.0076
776.00,0.0208
763.00,0.0539
750.00,0.0682
737.00,0.0292
724.00,0.0074
711.00,0.0186
698.00,0.1584
685.00,0.0572
672.00,0.0264
659.00,0.0157
646.00,0.0101
633.00,0.0113
620.00,0.0137
607.00,0.0106
594.00,0.0118
581.00,0.0152
568.00,0.0264
555.00,0.0374
542.00,0.0576
529.00,0.0403
516.00,0.0202
503.00,0.0130
490.00,0.0101
477.00,0.0086
464.00,0.0080
451.00,0.0072
438.00,0.0069
425.00,0.0064
412.00,0.0061
400.00,0.0060

File: 2025_07_28_CBN_PVP10kDa_Mortar_Mix_Batch_scan1.csv
Created as New Dataset,Sample 943 By YargerLab Date Monday, July 28 2025
cm-1,A
4000.00,0.0029
3987.00,0.0029
3974.00,0.0029
3961.00,0.0029
3948.00,0.0029
3935.00,0.0029
3922.00,0.0029
3909.00,0.0029
3896.00,0.0029
3883.00,0.0028
3870.00,0.0028
3857.00,0.0029
3844.00,0.0029
3831.00,0.0029
3818.00,0.0028
3805.00,0.0029
3792.00,0.0030
3779.00,0.0029
3766.00,0.0029
3753.00,0.0030
3740.00,0.0029
3727.00,0.0029
3714.00,0.0029
3701.00,0.0028
3688.00,0.0028
3675.00,0.0031
3662.00,0.0032
3649.00,0.0035
3636.00,0.0038
3623.00,0.0042
3610.00,0.0048
3597.00,0.0055
3584.00,0.0063
3571.00,0.0072
3558.00,0.0082
3545.00,0.0091
3532.00,0.0099
3519.00,0.0106
3506.00,0.0110
3493.00,0.0117
3480.00,0.0122
3467.00,0.0130
3454.00,0.0137
3441.00,0.0144
3428.00,0.0153
3415.00,0.0162
3402.00,0.0166
3389.00,0.0164
3376.00,0.0156
3363.00,0.0148
3350.00,0.0142
3337.00,0.0139
3324.00,0.0137
3311.00,0.0137
3298.00,0.0138
3285.00,0.0141
3272.00,0.0139
3259.00,0.0141
3246.00,0.0140
3233.00,0.0136
3220.00,0.0134
3207.00,0.0127
3194.00,0.0118
3181.00,0.0111
3168.00,0.0102
3155.00,0.0092
3142.00,0.0085
3129.00,0.0078
3116.00,0.0074
3103.00,0.0070
3090.00,0.0069
3077.00,0.0068
3064.00,0.0066
3051.00,0.0066
3038.00,0.0066
3025.00,0.0066
3012.00,0.0068
2999.00,0.0093
2986.00,0.0134
2973.00,0.0182
2960.00,0.0223
2947.00,0.0201
2934.00,0.0253
2921.00,0.0274
2908.00,0.0203
2895.00,0.0172
2882.00,0.0162
2869.00,0.0175
2856.00,0.0206
2843.00,0.0133
2830.00,0.0092
2817.00,0.0073
2804.00,0.0065
2791.00,0.0060
2778.00,0.0057
2765.00,0.0054
2752.00,0.0053
2739.00,0.0054
2726.00,0.0054
2713.00,0.0053
2700.00,0.0051
2687.00,0.0049
2674.00,0.0048
2661.00,0.0052
2648.00,0.0054
2635.00,0.0052
2622.00,0.0051
2609.00,0.0049
2596.00,0.0049
2583.00,0.0049
2570.00,0.0048
2557.00,0.0046
2544.00,0.0045
2531.00,0.0045
2518.00,0.0042
2505.00,0.0041
2492.00,0.0041
2479.00,0.0039
2466.00,0.0039
2453.00,0.0040
2440.00,0.0039
2427.00,0.0038
2414.00,0.0038
2401.00,0.0036
2388.00,0.0035
2375.00,0.0032
2362.00,0.0032
2349.00,0.0034
2336.00,0.0037
2323.00,0.0047
2310.00,0.0040
2297.00,0.0043
2284.00,0.0046
2271.00,0.0042
2258.00,0.0040
2245.00,0.0037
2232.00,0.0037
2219.00,0.0039
2206.00,0.0038
2193.00,0.0041
2180.00,0.0035
2167.00,0.0047
2154.00,0.0012
2141.00,0.0021
2128.00,0.0026
2115.00,0.0036
2102.00,0.0033
2089.00,0.0033
2076.00,0.0035
2063.00,0.0031
2050.00,0.0040
2037.00,0.0031
2024.00,0.0027
2011.00,0.0026
1998.00,0.0028
1985.00,0.0037
1972.00,0.0022
1959.00,0.0020
1946.00,0.0021
1933.00,0.0024
1920.00,0.0027
1907.00,0.0033
1894.00,0.0031
1881.00,0.0029
1868.00,0.0031
1855.00,0.0031
1842.00,0.0031
1829.00,0.0030
1816.00,0.0029
1803.00,0.0034
1790.00,0.0035
1777.00,0.0038
1764.00,0.0040
1751.00,0.0044
1738.00,0.0048
1725.00,0.0062
1712.00,0.0090
1699.00,0.0197
1686.00,0.0428
1673.00,0.0653
1660.00,0.0775
1647.00,0.0747
1634.00,0.0531
1621.00,0.0529
1608.00,0.0366
1595.00,0.0223
1582.00,0.0293
1569.00,0.0200
1556.00,0.0138
1543.00,0.0130
1530.00,0.0126
1517.00,0.0139
1504.00,0.0185
1491.00,0.0264
1478.00,0.0161
1465.00,0.0375
1452.00,0.0334
1439.00,0.0478
1426.00,0.0617
1413.00,0.0449
1400.00,0.0373
1387.00,0.0293
1374.00,0.0305
1361.00,0.0324
1348.00,0.0241
1335.00,0.0208
1322.00,0.0270
1309.00,0.0273
1296.00,0.0438
1283.00,0.0668
1270.00,0.0584
1257.00,0.0386
1244.00,0.0350
1231.00,0.0427
1218.00,0.0369
1205.00,0.0294
1192.00,0.0348
1179.00,0.0237
1166.00,0.0250
1153.00,0.0331
1140.00,0.0190
1127.00,0.0336
1114.00,0.0214
1101.00,0.0256
1088.00,0.0181
1075.00,0.0188
1062.00,0.0238
1049.00,0.0416
1036.00,0.0263
1023.00,0.0347
1010.00,0.0213
997.00,0.0230
984.00,0.0161
971.00,0.0148
958.00,0.0139
945.00,0.0131
932.00,0.0180
919.00,0.0164
906.00,0.0138
893.00,0.0170
880.00,0.0147
867.00,0.0268
854.00,0.0254
841.00,0.0268
828.00,0.0241
815.00,0.0338
802.00,0.0153
789.00,0.0147
776.00,0.0174
763.00,0.0184
750.00,0.0218
737.00,0.0309
724.00,0.0273
711.00,0.0259
698.00,0.0281
685.00,0.0311
672.00,0.0372
659.00,0.0431
646.00,0.0454
633.00,0.0408
620.00,0.0420
607.00,0.0420
594.00,0.0477
581.00,0.0529
568.00,0.0530
555.00,0.0515
542.00,0.0505
529.00,0.0504
516.00,0.0449
503.00,0.0449
490.00,0.0449
477.00,0.0438
464.00,0.0436
451.00,0.0426
438.00,0.0420
425.00,0.0405
412.00,0.0425
400.00,0.0401

File: 2025_07_28_CBN_PVP10kDa_Mortar_Mix_Batch_scan2.csv
Created as New Dataset,Sample 944 By YargerLab Date Monday, July 28 2025
cm-1,A
4000.00,0.0040
3987.00,0.0040
3974.00,0.0040
3961.00,0.0040
3948.00,0.0040
3935.00,0.0040
3922.00,0.0040
3909.00,0.0040
3896.00,0.0040
3883.00,0.0039
3870.00,0.0039
3857.00,0.0040
3844.00,0.0039
3831.00,0.0039
3818.00,0.0039
3805.00,0.0040
3792.00,0.0040
3779.00,0.0041
3766.00,0.0041
3753.00,0.0040
3740.00,0.0039
3727.00,0.0039
3714.00,0.0039
3701.00,0.0039
3688.00,0.0039
3675.00,0.0042
3662.00,0.0044
3649.00,0.0046
3636.00,0.0050
3623.00,0.0055
3610.00,0.0061
3597.00,0.0070
3584.00,0.0080
3571.00,0.0091
3558.00,0.0103
3545.00,0.0114
3532.00,0.0124
3519.00,0.0131
3506.00,0.0137
3493.00,0.0143
3480.00,0.0150
3467.00,0.0160
3454.00,0.0169
3441.00,0.0179
3428.00,0.0190
3415.00,0.0203
3402.00,0.0210
3389.00,0.0206
3376.00,0.0194
3363.00,0.0182
3350.00,0.0171
3337.00,0.0166
3324.00,0.0162
3311.00,0.0162
3298.00,0.0163
3285.00,0.0166
3272.00,0.0165
3259.00,0.0168
3246.00,0.0169
3233.00,0.0165
3220.00,0.0162
3207.00,0.0153
3194.00,0.0142
3181.00,0.0132
3168.00,0.0120
3155.00,0.0109
3142.00,0.0099
3129.00,0.0091
3116.00,0.0085
3103.00,0.0080
3090.00,0.0079
3077.00,0.0077
3064.00,0.0075
3051.00,0.0076
3038.00,0.0078
3025.00,0.0078
3012.00,0.0082
2999.00,0.0114
2986.00,0.0169
2973.00,0.0233
2960.00,0.0286
2947.00,0.0255
2934.00,0.0327
2921.00,0.0351
2908.00,0.0256
2895.00,0.0215
2882.00,0.0204
2869.00,0.0222
2856.00,0.0266
2843.00,0.0166
2830.00,0.0113
2817.00,0.0089
2804.00,0.0079
2791.00,0.0073
2778.00,0.0069
2765.00,0.0066
2752.00,0.0066
2739.00,0.0067
2726.00,0.0068
2713.00,0.0066
2700.00,0.0063
2687.00,0.0062
2674.00,0.0061
2661.00,0.0066
2648.00,0.0067
2635.00,0.0066
2622.00,0.0063
2609.00,0.0061
2596.00,0.0062
2583.00,0.0062
2570.00,0.0061
2557.00,0.0059
2544.00,0.0058
2531.00,0.0057
2518.00,0.0055
2505.00,0.0053
2492.00,0.0053
2479.00,0.0052
2466.00,0.0052
2453.00,0.0053
2440.00,0.0051
2427.00,0.0050
2414.00,0.0050
2401.00,0.0048
2388.00,0.0047
2375.00,0.0044
2362.00,0.0044
2349.00,0.0046
2336.00,0.0049
2323.00,0.0061
2310.00,0.0053
2297.00,0.0056
2284.00,0.0060
2271.00,0.0054
2258.00,0.0052
2245.00,0.0051
2232.00,0.0050
2219.00,0.0051
2206.00,0.0049
2193.00,0.0054
2180.00,0.0050
2167.00,0.0062
2154.00,0.0026
2141.00,0.0033
2128.00,0.0038
2115.00,0.0048
2102.00,0.0046
2089.00,0.0046
2076.00,0.0047
2063.00,0.0042
2050.00,0.0050
2037.00,0.0046
2024.00,0.0037
2011.00,0.0035
1998.00,0.0040
1985.00,0.0046
1972.00,0.0032
1959.00,0.0030
1946.00,0.0034
1933.00,0.0034
1920.00,0.0039
1907.00,0.0046
1894.00,0.0044
1881.00,0.0041
1868.00,0.0043
1855.00,0.0043
1842.00,0.0043
1829.00,0.0043
1816.00,0.0041
1803.00,0.0047
1790.00,0.0047
1777.00,0.0052
1764.00,0.0053
1751.00,0.0060
1738.00,0.0063
1725.00,0.0080
1712.00,0.0115
1699.00,0.0247
1686.00,0.0556
1673.00,0.0859
1660.00,0.1020
1647.00,0.0972
1634.00,0.0654
1621.00,0.0666
1608.00,0.0446
1595.00,0.0258
1582.00,0.0359
1569.00,0.0227
1556.00,0.0138
1543.00,0.0123
1530.00,0.0116
1517.00,0.0136
1504.00,0.0201
1491.00,0.0318
1478.00,0.0184
1465.00,0.0464
1452.00,0.0412
1439.00,0.0604
1426.00,0.0803
1413.00,0.0579
1400.00,0.0472
1387.00,0.0357
1374.00,0.0378
1361.00,0.0409
1348.00,0.0295
1335.00,0.0251
1322.00,0.0333
1309.00,0.0340
1296.00,0.0558
1283.00,0.0886
1270.00,0.0776
1257.00,0.0499
1244.00,0.0442
1231.00,0.0545
1218.00,0.0469
1205.00,0.0373
1192.00,0.0448
1179.00,0.0296
1166.00,0.0315
1153.00,0.0424
1140.00,0.0233
1127.00,0.0434
1114.00,0.0258
1101.00,0.0315
1088.00,0.0209
1075.00,0.0217
1062.00,0.0287
1049.00,0.0534
1036.00,0.0315
1023.00,0.0426
1010.00,0.0249
997.00,0.0275
984.00,0.0188
971.00,0.0172
958.00,0.0161
945.00,0.0153
932.00,0.0219
919.00,0.0196
906.00,0.0165
893.00,0.0207
880.00,0.0175
867.00,0.0333
854.00,0.0316
841.00,0.0332
828.00,0.0291
815.00,0.0415
802.00,0.0169
789.00,0.0162
776.00,0.0196
763.00,0.0210
750.00,0.0255
737.00,0.0373
724.00,0.0318
711.00,0.0295
698.00,0.0320
685.00,0.0360
672.00,0.0439
659.00,0.0519
646.00,0.0552
633.00,0.0488
620.00,0.0494
607.00,0.0496
594.00,0.0568
581.00,0.0634
568.00,0.0647
555.00,0.0620
542.00,0.0602
529.00,0.0601
516.00,0.0533
503.00,0.0535
490.00,0.0537
477.00,0.0532
464.00,0.0524
451.00,0.0519
438.00,0.0498
425.00,0.0467
412.00,0.0475
400.00,0.0460

File: 2025_07_28_CBN_PVP10kDa_Mortar_Mix_Batch_scan3.csv
Created as New Dataset,Sample 945 By YargerLab Date Monday, July 28 2025
cm-1,A
4000.00,0.0046
3987.00,0.0047
3974.00,0.0047
3961.00,0.0047
3948.00,0.0047
3935.00,0.0046
3922.00,0.0046
3909.00,0.0046
3896.00,0.0046
3883.00,0.0045
3870.00,0.0046
3857.00,0.0046
3844.00,0.0045
3831.00,0.0046
3818.00,0.0045
3805.00,0.0045
3792.00,0.0047
3779.00,0.0046
3766.00,0.0047
3753.00,0.0047
3740.00,0.0045
3727.00,0.0045
3714.00,0.0045
3701.00,0.0044
3688.00,0.0045
3675.00,0.0047
3662.00,0.0049
3649.00,0.0050
3636.00,0.0054
3623.00,0.0058
3610.00,0.0064
3597.00,0.0070
3584.00,0.0079
3571.00,0.0088
3558.00,0.0099
3545.00,0.0109
3532.00,0.0117
3519.00,0.0125
3506.00,0.0131
3493.00,0.0138
3480.00,0.0147
3467.00,0.0159
3454.00,0.0172
3441.00,0.0186
3428.00,0.0203
3415.00,0.0223
3402.00,0.0234
3389.00,0.0230
3376.00,0.0215
3363.00,0.0200
3350.00,0.0188
3337.00,0.0182
3324.00,0.0180
3311.00,0.0181
3298.00,0.0185
3285.00,0.0190
3272.00,0.0193
3259.00,0.0199
3246.00,0.0203
3233.00,0.0202
3220.00,0.0200
3207.00,0.0190
3194.00,0.0176
3181.00,0.0162
3168.00,0.0148
3155.00,0.0132
3142.00,0.0119
3129.00,0.0109
3116.00,0.0102
3103.00,0.0094
3090.00,0.0092
3077.00,0.0091
3064.00,0.0088
3051.00,0.0090
3038.00,0.0091
3025.00,0.0090
3012.00,0.0091
2999.00,0.0126
2986.00,0.0184
2973.00,0.0262
2960.00,0.0326
2947.00,0.0276
2934.00,0.0384
2921.00,0.0417
2908.00,0.0294
2895.00,0.0239
2882.00,0.0221
2869.00,0.0251
2856.00,0.0323
2843.00,0.0196
2830.00,0.0131
2817.00,0.0104
2804.00,0.0093
2791.00,0.0086
2778.00,0.0080
2765.00,0.0077
2752.00,0.0077
2739.00,0.0079
2726.00,0.0081
2713.00,0.0078
2700.00,0.0075
2687.00,0.0073
2674.00,0.0072
2661.00,0.0077
2648.00,0.0079
2635.00,0.0076
2622.00,0.0073
2609.00,0.0072
2596.00,0.0072
2583.00,0.0073
2570.00,0.0071
2557.00,0.0069
2544.00,0.0067
2531.00,0.0067
2518.00,0.0064
2505.00,0.0061
2492.00,0.0061
2479.00,0.0060
2466.00,0.0059
2453.00,0.0060
2440.00,0.0059
2427.00,0.0057
2414.00,0.0056
2401.00,0.0056
2388.00,0.0054
2375.00,0.0051
2362.00,0.0050
2349.00,0.0052
2336.00,0.0055
2323.00,0.0068
2310.00,0.0060
2297.00,0.0063
2284.00,0.0067
2271.00,0.0060
2258.00,0.0058
2245.00,0.0054
2232.00,0.0057
2219.00,0.0055
2206.00,0.0057
2193.00,0.0057
2180.00,0.0053
2167.00,0.0066
2154.00,0.0031
2141.00,0.0036
2128.00,0.0042
2115.00,0.0052
2102.00,0.0050
2089.00,0.0049
2076.00,0.0053
2063.00,0.0047
2050.00,0.0054
2037.00,0.0048
2024.00,0.0041
2011.00,0.0041
1998.00,0.0043
1985.00,0.0052
1972.00,0.0035
1959.00,0.0033
1946.00,0.0035
1933.00,0.0041
1920.00,0.0045
1907.00,0.0055
1894.00,0.0051
1881.00,0.0046
1868.00,0.0048
1855.00,0.0048
1842.00,0.0050
1829.00,0.0048
1816.00,0.0047
1803.00,0.0053
1790.00,0.0053
1777.00,0.0058
1764.00,0.0059
1751.00,0.0065
1738.00,0.0067
1725.00,0.0087
1712.00,0.0119
1699.00,0.0236
1686.00,0.0501
1673.00,0.0765
1660.00,0.0902
1647.00,0.0851
1634.00,0.0595
1621.00,0.0729
1608.00,0.0500
1595.00,0.0279
1582.00,0.0440
1569.00,0.0274
1556.00,0.0154
1543.00,0.0131
1530.00,0.0124
1517.00,0.0151
1504.00,0.0217
1491.00,0.0336
1478.00,0.0191
1465.00,0.0485
1452.00,0.0429
1439.00,0.0623
1426.00,0.0815
1413.00,0.0581
1400.00,0.0565
1387.00,0.0416
1374.00,0.0404
1361.00,0.0478
1348.00,0.0353
1335.00,0.0287
1322.00,0.0356
1309.00,0.0356
1296.00,0.0590
1283.00,0.0879
1270.00,0.0728
1257.00,0.0469
1244.00,0.0459
1231.00,0.0582
1218.00,0.0482
1205.00,0.0382
1192.00,0.0513
1179.00,0.0303
1166.00,0.0313
1153.00,0.0489
1140.00,0.0247
1127.00,0.0534
1114.00,0.0294
1101.00,0.0372
1088.00,0.0221
1075.00,0.0225
1062.00,0.0324
1049.00,0.0672
1036.00,0.0378
1023.00,0.0522
1010.00,0.0281
997.00,0.0321
984.00,0.0212
971.00,0.0194
958.00,0.0181
945.00,0.0169
932.00,0.0239
919.00,0.0222
906.00,0.0177
893.00,0.0228
880.00,0.0192
867.00,0.0419
854.00,0.0363
841.00,0.0367
828.00,0.0341
815.00,0.0540
802.00,0.0192
789.00,0.0177
776.00,0.0220
763.00,0.0224
750.00,0.0263
737.00,0.0410
724.00,0.0349
711.00,0.0330
698.00,0.0358
685.00,0.0396
672.00,0.0482
659.00,0.0548
646.00,0.0552
633.00,0.0494
620.00,0.0521
607.00,0.0519
594.00,0.0616
581.00,0.0662
568.00,0.0658
555.00,0.0648
542.00,0.0647
529.00,0.0645
516.00,0.0547
503.00,0.0541
490.00,0.0545
477.00,0.0518
464.00,0.0513
451.00,0.0502
438.00,0.0485
425.00,0.0464
412.00,0.0483
400.00,0.0460

File: 2025_07_28_Polystyrene_Std_scan1.csv
Created as New Dataset,Sample 932 By YargerLab Date Monday, July 28 2025
cm-1,A
4000.00,0.0013
3987.00,0.0012
3974.00,0.0012
3961.00,0.0012
3948.00,0.0011
3935.00,0.0012
3922.00,0.0012
3909.00,0.0012
3896.00,0.0011
3883.00,0.0010
3870.00,0.0009
3857.00,0.0012
3844.00,0.0011
3831.00,0.0011
3818.00,0.0010
3805.00,0.0011
3792.00,0.0012
3779.00,0.0011
3766.00,0.0011
3753.00,0.0010
3740.00,0.0009
3727.00,0.0010
3714.00,0.0010
3701.00,0.0011
3688.00,0.0008
3675.00,0.0010
3662.00,0.0010
3649.00,0.0010
3636.00,0.0010
3623.00,0.0010
3610.00,0.0010
3597.00,0.0011
3584.00,0.0011
3571.00,0.0012
3558.00,0.0013
3545.00,0.0014
3532.00,0.0015
3519.00,0.0016
3506.00,0.0016
3493.00,0.0017
3480.00,0.0018
3467.00,0.0018
3454.00,0.0019
3441.00,0.0020
3428.00,0.0019
3415.00,0.0019
3402.00,0.0019
3389.00,0.0019
3376.00,0.0019
3363.00,0.0019
3350.00,0.0019
3337.00,0.0019
3324.00,0.0019
3311.00,0.0019
3298.00,0.0019
3285.00,0.0019
3272.00,0.0019
3259.00,0.0019
3246.00,0.0018
3233.00,0.0018
3220.00,0.0018
3207.00,0.0019
3194.00,0.0018
3181.00,0.0017
3168.00,0.0019
3155.00,0.0018
3142.00,0.0017
3129.00,0.0018
3116.00,0.0023
3103.00,0.0048
3090.00,0.0070
3077.00,0.0096
3064.00,0.0145
3051.00,0.0102
3038.00,0.0118
3025.00,0.0318
3012.00,0.0088
2999.00,0.0080
2986.00,0.0041
2973.00,0.0046
2960.00,0.0078
2947.00,0.0143
2934.00,0.0294
2921.00,0.0403
2908.00,0.0302
2895.00,0.0178
2882.00,0.0124
2869.00,0.0103
2856.00,0.0156
2843.00,0.0140
2830.00,0.0049
2817.00,0.0037
2804.00,0.0032
2791.00,0.0028
2778.00,0.0027
2765.00,0.0024
2752.00,0.0023
2739.00,0.0023
2726.00,0.0024
2713.00,0.0023
2700.00,0.0023
2687.00,0.0023
2674.00,0.0023
2661.00,0.0026
2648.00,0.0028
2635.00,0.0029
2622.00,0.0026
2609.00,0.0025
2596.00,0.0023
2583.00,0.0022
2570.00,0.0020
2557.00,0.0019
2544.00,0.0018
2531.00,0.0018
2518.00,0.0017
2505.00,0.0016
2492.00,0.0015
2479.00,0.0015
2466.00,0.0014
2453.00,0.0016
2440.00,0.0014
2427.00,0.0010
2414.00,0.0011
2401.00,0.0009
2388.00,0.0009
2375.00,0.0010
2362.00,0.0013
2349.00,0.0016
2336.00,0.0021
2323.00,0.0031
2310.00,0.0023
2297.00,0.0021
2284.00,0.0024
2271.00,0.0017
2258.00,0.0016
2245.00,0.0014
2232.00,0.0014
2219.00,0.0012
2206.00,0.0011
2193.00,0.0012
2180.00,0.0006
2167.00,0.0020
2154.00,-0.0020
2141.00,-0.0011
2128.00,-0.0007
2115.00,0.0007
2102.00,0.0007
2089.00,0.0005
2076.00,0.0008
2063.00,0.0003
2050.00,0.0012
2037.00,0.0008
2024.00,-0.0003
2011.00,0.0000
1998.00,0.0001
1985.00,0.0016
1972.00,0.0003
1959.00,0.0016
1946.00,0.0039
1933.00,0.0022
1920.00,0.0010
1907.00,0.0009
1894.00,0.0019
1881.00,0.0033
1868.00,0.0040
1855.00,0.0017
1842.00,0.0009
1829.00,0.0016
1816.00,0.0027
1803.00,0.0047
1790.00,0.0027
1777.00,0.0023
1764.00,0.0027
1751.00,0.0047
1738.00,0.0057
1725.00,0.0046
1712.00,0.0039
1699.00,0.0042
1686.00,0.0053
1673.00,0.0058
1660.00,0.0054
1647.00,0.0040
1634.00,0.0033
1621.00,0.0042
1608.00,0.0126
1595.00,0.0152
1582.00,0.0122
1569.00,0.0035
1556.00,0.0033
1543.00,0.0048
1530.00,0.0033
1517.00,0.0032
1504.00,0.0065
1491.00,0.0654
1478.00,0.0084
1465.00,0.0093
1452.00,0.0757
1439.00,0.0276
1426.00,0.0092
1413.00,0.0065
1400.00,0.0062
1387.00,0.0099
1374.00,0.0158
1361.00,0.0149
1348.00,0.0131
1335.00,0.0120
1322.00,0.0127
1309.00,0.0129
1296.00,0.0109
1283.00,0.0101
1270.00,0.0079
1257.00,0.0069
1244.00,0.0072
1231.00,0.0071
1218.00,0.0073
1205.00,0.0091
1192.00,0.0113
1179.00,0.0142
1166.00,0.0086
1153.00,0.0145
1140.00,0.0061
1127.00,0.0060
1114.00,0.0083
1101.00,0.0086
1088.00,0.0103
1075.00,0.0167
1062.00,0.0169
1049.00,0.0111
1036.00,0.0159
1023.00,0.0260
1010.00,0.0140
997.00,0.0109
984.00,0.0124
971.00,0.0120
958.00,0.0113
945.00,0.0108
932.00,0.0080
919.00,0.0097
906.00,0.0239
893.00,0.0085
880.00,0.0061
867.00,0.0055
854.00,0.0061
841.00,0.0122
828.00,0.0056
815.00,0.0055
802.00,0.0061
789.00,0.0117
776.00,0.0300
763.00,0.0795
750.00,0.1038
737.00,0.0441
724.00,0.0118
711.00,0.0274
698.00,0.2490
685.00,0.0922
672.00,0.0410
659.00,0.0243
646.00,0.0157
633.00,0.0173
620.00,0.0209
607.00,0.0160
594.00,0.0181
581.00,0.0235
568.00,0.0392
555.00,0.0564
542.00,0.0888
529.00,0.0629
516.00,0.0301
503.00,0.0194
490.00,0.0150
477.00,0.0129
464.00,0.0124
451.00,0.0112
438.00,0.0110
425.00,0.0096
412.00,0.0092
400.00,0.0066