Folder: Data/FTIR/Olivia (part 5)

File: 2025_06_24_Polystyrene_Std_scan1.csv
Created as New Dataset,Sample 715 By YargerLab Date Monday, June 23 2025
cm-1,A
4000.00,0.0020
3987.00,0.0020
3974.00,0.0019
3961.00,0.0019
3948.00,0.0020
3935.00,0.0019
3922.00,0.0019
3909.00,0.0019
3896.00,0.0020
3883.00,0.0020
3870.00,0.0020
3857.00,0.0020
3844.00,0.0019
3831.00,0.0021
3818.00,0.0021
3805.00,0.0021
3792.00,0.0020
3779.00,0.0019
3766.00,0.0021
3753.00,0.0023
3740.00,0.0022
3727.00,0.0020
3714.00,0.0020
3701.00,0.0019
3688.00,0.0019
3675.00,0.0014
3662.00,0.0011
3649.00,0.0015
3636.00,0.0014
3623.00,0.0018
3610.00,0.0019
3597.00,0.0018
3584.00,0.0019
3571.00,0.0019
3558.00,0.0019
3545.00,0.0020
3532.00,0.0021
3519.00,0.0020
3506.00,0.0022
3493.00,0.0023
3480.00,0.0022
3467.00,0.0023
3454.00,0.0023
3441.00,0.0023
3428.00,0.0023
3415.00,0.0024
3402.00,0.0023
3389.00,0.0024
3376.00,0.0023
3363.00,0.0023
3350.00,0.0024
3337.00,0.0023
3324.00,0.0024
3311.00,0.0024
3298.00,0.0024
3285.00,0.0023
3272.00,0.0023
3259.00,0.0022
3246.00,0.0022
3233.00,0.0022
3220.00,0.0022
3207.00,0.0023
3194.00,0.0022
3181.00,0.0021
3168.00,0.0022
3155.00,0.0022
3142.00,0.0022
3129.00,0.0022
3116.00,0.0026
3103.00,0.0046
3090.00,0.0060
3077.00,0.0084
3064.00,0.0119
3051.00,0.0089
3038.00,0.0097
3025.00,0.0261
3012.00,0.0070
2999.00,0.0041
2986.00,-0.0008
2973.00,-0.0012
2960.00,0.0032
2947.00,0.0095
2934.00,0.0221
2921.00,0.0320
2908.00,0.0232
2895.00,0.0130
2882.00,0.0085
2869.00,0.0075
2856.00,0.0126
2843.00,0.0120
2830.00,0.0044
2817.00,0.0035
2804.00,0.0033
2791.00,0.0029
2778.00,0.0028
2765.00,0.0027
2752.00,0.0026
2739.00,0.0026
2726.00,0.0027
2713.00,0.0027
2700.00,0.0026
2687.00,0.0026
2674.00,0.0026
2661.00,0.0029
2648.00,0.0031
2635.00,0.0032
2622.00,0.0029
2609.00,0.0029
2596.00,0.0028
2583.00,0.0027
2570.00,0.0025
2557.00,0.0023
2544.00,0.0023
2531.00,0.0023
2518.00,0.0023
2505.00,0.0022
2492.00,0.0022
2479.00,0.0021
2466.00,0.0020
2453.00,0.0021
2440.00,0.0020
2427.00,0.0018
2414.00,0.0018
2401.00,0.0017
2388.00,0.0016
2375.00,0.0017
2362.00,0.0018
2349.00,0.0018
2336.00,0.0024
2323.00,0.0031
2310.00,0.0027
2297.00,0.0026
2284.00,0.0029
2271.00,0.0025
2258.00,0.0024
2245.00,0.0021
2232.00,0.0021
2219.00,0.0020
2206.00,0.0020
2193.00,0.0022
2180.00,0.0014
2167.00,0.0026
2154.00,-0.0005
2141.00,-0.0001
2128.00,0.0001
2115.00,0.0016
2102.00,0.0013
2089.00,0.0014
2076.00,0.0015
2063.00,0.0013
2050.00,0.0022
2037.00,0.0017
2024.00,0.0009
2011.00,0.0007
1998.00,0.0011
1985.00,0.0025
1972.00,0.0014
1959.00,0.0016
1946.00,0.0040
1933.00,0.0027
1920.00,0.0017
1907.00,0.0016
1894.00,0.0024
1881.00,0.0036
1868.00,0.0041
1855.00,0.0025
1842.00,0.0016
1829.00,0.0022
1816.00,0.0032
1803.00,0.0048
1790.00,0.0032
1777.00,0.0028
1764.00,0.0031
1751.00,0.0050
1738.00,0.0057
1725.00,0.0048
1712.00,0.0041
1699.00,0.0038
1686.00,0.0040
1673.00,0.0044
1660.00,0.0042
1647.00,0.0037
1634.00,0.0037
1621.00,0.0042
1608.00,0.0113
1595.00,0.0144
1582.00,0.0118
1569.00,0.0043
1556.00,0.0041
1543.00,0.0056
1530.00,0.0043
1517.00,0.0039
1504.00,0.0066
1491.00,0.0602
1478.00,0.0082
1465.00,0.0083
1452.00,0.0686
1439.00,0.0252
1426.00,0.0083
1413.00,0.0060
1400.00,0.0046
1387.00,0.0075
1374.00,0.0134
1361.00,0.0134
1348.00,0.0124
1335.00,0.0113
1322.00,0.0122
1309.00,0.0126
1296.00,0.0103
1283.00,0.0092
1270.00,0.0069
1257.00,0.0058
1244.00,0.0063
1231.00,0.0066
1218.00,0.0072
1205.00,0.0091
1192.00,0.0110
1179.00,0.0131
1166.00,0.0069
1153.00,0.0122
1140.00,0.0046
1127.00,0.0049
1114.00,0.0076
1101.00,0.0078
1088.00,0.0090
1075.00,0.0150
1062.00,0.0152
1049.00,0.0107
1036.00,0.0156
1023.00,0.0264
1010.00,0.0144
997.00,0.0113
984.00,0.0127
971.00,0.0111
958.00,0.0100
945.00,0.0100
932.00,0.0081
919.00,0.0103
906.00,0.0248
893.00,0.0093
880.00,0.0070
867.00,0.0062
854.00,0.0070
841.00,0.0130
828.00,0.0060
815.00,0.0057
802.00,0.0069
789.00,0.0129
776.00,0.0315
763.00,0.0831
750.00,0.1088
737.00,0.0456
724.00,0.0131
711.00,0.0283
698.00,0.3001
685.00,0.1060
672.00,0.0468
659.00,0.0275
646.00,0.0175
633.00,0.0194
620.00,0.0233
607.00,0.0180
594.00,0.0199
581.00,0.0255
568.00,0.0439
555.00,0.0625
542.00,0.0992
529.00,0.0706
516.00,0.0343
503.00,0.0226
490.00,0.0171
477.00,0.0146
464.00,0.0131
451.00,0.0128
438.00,0.0118
425.00,0.0112
412.00,0.0097
400.00,0.0090

File: 2025_06_24_Polystyrene_Std_scan2.csv
Created as New Dataset,Sample 716 By YargerLab Date Tuesday, June 24 2025
cm-1,A
4000.00,0.0016
3987.00,0.0016
3974.00,0.0016
3961.00,0.0015
3948.00,0.0016
3935.00,0.0016
3922.00,0.0016
3909.00,0.0016
3896.00,0.0016
3883.00,0.0016
3870.00,0.0016
3857.00,0.0017
3844.00,0.0016
3831.00,0.0017
3818.00,0.0018
3805.00,0.0017
3792.00,0.0017
3779.00,0.0016
3766.00,0.0017
3753.00,0.0018
3740.00,0.0017
3727.00,0.0015
3714.00,0.0016
3701.00,0.0016
3688.00,0.0014
3675.00,0.0009
3662.00,0.0006
3649.00,0.0009
3636.00,0.0009
3623.00,0.0013
3610.00,0.0015
3597.00,0.0014
3584.00,0.0014
3571.00,0.0015
3558.00,0.0014
3545.00,0.0015
3532.00,0.0015
3519.00,0.0015
3506.00,0.0016
3493.00,0.0016
3480.00,0.0015
3467.00,0.0016
3454.00,0.0016
3441.00,0.0015
3428.00,0.0016
3415.00,0.0016
3402.00,0.0015
3389.00,0.0016
3376.00,0.0015
3363.00,0.0015
3350.00,0.0015
3337.00,0.0015
3324.00,0.0015
3311.00,0.0016
3298.00,0.0015
3285.00,0.0015
3272.00,0.0016
3259.00,0.0015
3246.00,0.0015
3233.00,0.0014
3220.00,0.0014
3207.00,0.0015
3194.00,0.0014
3181.00,0.0014
3168.00,0.0015
3155.00,0.0015
3142.00,0.0015
3129.00,0.0016
3116.00,0.0019
3103.00,0.0039
3090.00,0.0052
3077.00,0.0076
3064.00,0.0108
3051.00,0.0081
3038.00,0.0087
3025.00,0.0245
3012.00,0.0060
2999.00,0.0024
2986.00,-0.0029
2973.00,-0.0039
2960.00,0.0004
2947.00,0.0069
2934.00,0.0183
2921.00,0.0272
2908.00,0.0199
2895.00,0.0104
2882.00,0.0064
2869.00,0.0056
2856.00,0.0101
2843.00,0.0102
2830.00,0.0035
2817.00,0.0027
2804.00,0.0026
2791.00,0.0023
2778.00,0.0022
2765.00,0.0021
2752.00,0.0021
2739.00,0.0021
2726.00,0.0021
2713.00,0.0021
2700.00,0.0021
2687.00,0.0021
2674.00,0.0021
2661.00,0.0024
2648.00,0.0025
2635.00,0.0026
2622.00,0.0024
2609.00,0.0024
2596.00,0.0023
2583.00,0.0022
2570.00,0.0020
2557.00,0.0019
2544.00,0.0019
2531.00,0.0019
2518.00,0.0018
2505.00,0.0018
2492.00,0.0018
2479.00,0.0017
2466.00,0.0017
2453.00,0.0017
2440.00,0.0016
2427.00,0.0014
2414.00,0.0014
2401.00,0.0014
2388.00,0.0013
2375.00,0.0013
2362.00,0.0015
2349.00,0.0016
2336.00,0.0020
2323.00,0.0028
2310.00,0.0023
2297.00,0.0022
2284.00,0.0026
2271.00,0.0022
2258.00,0.0019
2245.00,0.0019
2232.00,0.0017
2219.00,0.0017
2206.00,0.0016
2193.00,0.0016
2180.00,0.0011
2167.00,0.0023
2154.00,-0.0007
2141.00,-0.0004
2128.00,-0.0001
2115.00,0.0013
2102.00,0.0010
2089.00,0.0012
2076.00,0.0014
2063.00,0.0010
2050.00,0.0020
2037.00,0.0012
2024.00,0.0005
2011.00,0.0007
1998.00,0.0007
1985.00,0.0024
1972.00,0.0010
1959.00,0.0013
1946.00,0.0036
1933.00,0.0024
1920.00,0.0013
1907.00,0.0012
1894.00,0.0020
1881.00,0.0031
1868.00,0.0037
1855.00,0.0020
1842.00,0.0014
1829.00,0.0018
1816.00,0.0027
1803.00,0.0043
1790.00,0.0028
1777.00,0.0022
1764.00,0.0025
1751.00,0.0039
1738.00,0.0044
1725.00,0.0034
1712.00,0.0028
1699.00,0.0027
1686.00,0.0029
1673.00,0.0032
1660.00,0.0028
1647.00,0.0024
1634.00,0.0025
1621.00,0.0031
1608.00,0.0098
1595.00,0.0129
1582.00,0.0104
1569.00,0.0035
1556.00,0.0033
1543.00,0.0047
1530.00,0.0035
1517.00,0.0032
1504.00,0.0057
1491.00,0.0562
1478.00,0.0068
1465.00,0.0064
1452.00,0.0627
1439.00,0.0224
1426.00,0.0065
1413.00,0.0044
1400.00,0.0029
1387.00,0.0052
1374.00,0.0107
1361.00,0.0111
1348.00,0.0104
1335.00,0.0096
1322.00,0.0105
1309.00,0.0109
1296.00,0.0086
1283.00,0.0076
1270.00,0.0052
1257.00,0.0040
1244.00,0.0046
1231.00,0.0050
1218.00,0.0057
1205.00,0.0076
1192.00,0.0094
1179.00,0.0111
1166.00,0.0049
1153.00,0.0098
1140.00,0.0028
1127.00,0.0032
1114.00,0.0059
1101.00,0.0061
1088.00,0.0072
1075.00,0.0129
1062.00,0.0133
1049.00,0.0091
1036.00,0.0139
1023.00,0.0243
1010.00,0.0130
997.00,0.0102
984.00,0.0116
971.00,0.0097
958.00,0.0084
945.00,0.0084
932.00,0.0068
919.00,0.0093
906.00,0.0232
893.00,0.0084
880.00,0.0060
867.00,0.0054
854.00,0.0060
841.00,0.0118
828.00,0.0051
815.00,0.0048
802.00,0.0060
789.00,0.0118
776.00,0.0293
763.00,0.0781
750.00,0.1024
737.00,0.0428
724.00,0.0120
711.00,0.0264
698.00,0.2802
685.00,0.1003
672.00,0.0440
659.00,0.0256
646.00,0.0161
633.00,0.0176
620.00,0.0215
607.00,0.0167
594.00,0.0183
581.00,0.0238
568.00,0.0405
555.00,0.0587
542.00,0.0938
529.00,0.0670
516.00,0.0322
503.00,0.0209
490.00,0.0158
477.00,0.0132
464.00,0.0116
451.00,0.0119
438.00,0.0101
425.00,0.0102
412.00,0.0074
400.00,0.0089

File: 2025_06_24_Polystyrene_Std_scan3.csv
Created as New Dataset,Sample 717 By YargerLab Date Tuesday, June 24 2025
cm-1,A
4000.00,0.0023
3987.00,0.0021
3974.00,0.0022
3961.00,0.0021
3948.00,0.0022
3935.00,0.0022
3922.00,0.0022
3909.00,0.0021
3896.00,0.0021
3883.00,0.0021
3870.00,0.0021
3857.00,0.0022
3844.00,0.0021
3831.00,0.0022
3818.00,0.0022
3805.00,0.0022
3792.00,0.0022
3779.00,0.0021
3766.00,0.0022
3753.00,0.0023
3740.00,0.0023
3727.00,0.0021
3714.00,0.0021
3701.00,0.0021
3688.00,0.0019
3675.00,0.0014
3662.00,0.0011
3649.00,0.0013
3636.00,0.0014
3623.00,0.0019
3610.00,0.0020
3597.00,0.0018
3584.00,0.0019
3571.00,0.0019
3558.00,0.0019
3545.00,0.0020
3532.00,0.0021
3519.00,0.0020
3506.00,0.0020
3493.00,0.0021
3480.00,0.0021
3467.00,0.0021
3454.00,0.0020
3441.00,0.0020
3428.00,0.0020
3415.00,0.0020
3402.00,0.0020
3389.00,0.0021
3376.00,0.0020
3363.00,0.0020
3350.00,0.0020
3337.00,0.0019
3324.00,0.0019
3311.00,0.0020
3298.00,0.0020
3285.00,0.0019
3272.00,0.0020
3259.00,0.0019
3246.00,0.0019
3233.00,0.0018
3220.00,0.0018
3207.00,0.0019
3194.00,0.0018
3181.00,0.0018
3168.00,0.0020
3155.00,0.0019
3142.00,0.0019
3129.00,0.0019
3116.00,0.0024
3103.00,0.0045
3090.00,0.0060
3077.00,0.0084
3064.00,0.0121
3051.00,0.0090
3038.00,0.0099
3025.00,0.0270
3012.00,0.0068
2999.00,0.0031
2986.00,-0.0026
2973.00,-0.0036
2960.00,0.0009
2947.00,0.0078
2934.00,0.0201
2921.00,0.0299
2908.00,0.0221
2895.00,0.0118
2882.00,0.0074
2869.00,0.0064
2856.00,0.0112
2843.00,0.0115
2830.00,0.0042
2817.00,0.0033
2804.00,0.0031
2791.00,0.0028
2778.00,0.0027
2765.00,0.0026
2752.00,0.0025
2739.00,0.0025
2726.00,0.0026
2713.00,0.0026
2700.00,0.0025
2687.00,0.0025
2674.00,0.0025
2661.00,0.0028
2648.00,0.0029
2635.00,0.0030
2622.00,0.0029
2609.00,0.0028
2596.00,0.0027
2583.00,0.0026
2570.00,0.0024
2557.00,0.0023
2544.00,0.0023
2531.00,0.0022
2518.00,0.0022
2505.00,0.0022
2492.00,0.0022
2479.00,0.0020
2466.00,0.0021
2453.00,0.0020
2440.00,0.0020
2427.00,0.0018
2414.00,0.0018
2401.00,0.0016
2388.00,0.0016
2375.00,0.0017
2362.00,0.0019
2349.00,0.0020
2336.00,0.0025
2323.00,0.0032
2310.00,0.0027
2297.00,0.0026
2284.00,0.0028
2271.00,0.0024
2258.00,0.0024
2245.00,0.0021
2232.00,0.0020
2219.00,0.0020
2206.00,0.0019
2193.00,0.0018
2180.00,0.0014
2167.00,0.0025
2154.00,-0.0006
2141.00,-0.0002
2128.00,0.0002
2115.00,0.0015
2102.00,0.0013
2089.00,0.0015
2076.00,0.0015
2063.00,0.0013
2050.00,0.0023
2037.00,0.0012
2024.00,0.0007
2011.00,0.0009
1998.00,0.0010
1985.00,0.0022
1972.00,0.0012
1959.00,0.0017
1946.00,0.0041
1933.00,0.0030
1920.00,0.0017
1907.00,0.0015
1894.00,0.0024
1881.00,0.0036
1868.00,0.0041
1855.00,0.0023
1842.00,0.0017
1829.00,0.0022
1816.00,0.0031
1803.00,0.0048
1790.00,0.0032
1777.00,0.0025
1764.00,0.0027
1751.00,0.0044
1738.00,0.0048
1725.00,0.0037
1712.00,0.0031
1699.00,0.0029
1686.00,0.0031
1673.00,0.0034
1660.00,0.0030
1647.00,0.0025
1634.00,0.0025
1621.00,0.0033
1608.00,0.0106
1595.00,0.0138
1582.00,0.0111
1569.00,0.0036
1556.00,0.0035
1543.00,0.0051
1530.00,0.0038
1517.00,0.0035
1504.00,0.0062
1491.00,0.0609
1478.00,0.0075
1465.00,0.0069
1452.00,0.0682
1439.00,0.0241
1426.00,0.0070
1413.00,0.0048
1400.00,0.0032
1387.00,0.0057
1374.00,0.0117
1361.00,0.0121
1348.00,0.0112
1335.00,0.0103
1322.00,0.0112
1309.00,0.0116
1296.00,0.0092
1283.00,0.0081
1270.00,0.0056
1257.00,0.0045
1244.00,0.0049
1231.00,0.0052
1218.00,0.0060
1205.00,0.0079
1192.00,0.0098
1179.00,0.0116
1166.00,0.0052
1153.00,0.0104
1140.00,0.0030
1127.00,0.0033
1114.00,0.0063
1101.00,0.0065
1088.00,0.0077
1075.00,0.0137
1062.00,0.0141
1049.00,0.0097
1036.00,0.0148
1023.00,0.0258
1010.00,0.0137
997.00,0.0107
984.00,0.0120
971.00,0.0101
958.00,0.0087
945.00,0.0087
932.00,0.0071
919.00,0.0096
906.00,0.0240
893.00,0.0087
880.00,0.0062
867.00,0.0055
854.00,0.0062
841.00,0.0123
828.00,0.0052
815.00,0.0049
802.00,0.0062
789.00,0.0123
776.00,0.0306
763.00,0.0813
750.00,0.1058
737.00,0.0442
724.00,0.0123
711.00,0.0274
698.00,0.2870
685.00,0.0998
672.00,0.0441
659.00,0.0257
646.00,0.0161
633.00,0.0182
620.00,0.0220
607.00,0.0166
594.00,0.0186
581.00,0.0241
568.00,0.0413
555.00,0.0594
542.00,0.0949
529.00,0.0671
516.00,0.0326
503.00,0.0208
490.00,0.0158
477.00,0.0136
464.00,0.0116
451.00,0.0115
438.00,0.0101
425.00,0.0107
412.00,0.0084
400.00,0.0091

File: 2025_06_26_Polystyrene_Std_OAG_scan1.csv
Created as New Dataset,Sample 721 By YargerLab Date Tuesday, June 24 2025
cm-1,A
4000.00,0.0017
3987.00,0.0017
3974.00,0.0016
3961.00,0.0016
3948.00,0.0017
3935.00,0.0017
3922.00,0.0016
3909.00,0.0016
3896.00,0.0016
3883.00,0.0016
3870.00,0.0015
3857.00,0.0015
3844.00,0.0016
3831.00,0.0017
3818.00,0.0016
3805.00,0.0016
3792.00,0.0017
3779.00,0.0017
3766.00,0.0017
3753.00,0.0017
3740.00,0.0016
3727.00,0.0015
3714.00,0.0016
3701.00,0.0015
3688.00,0.0015
3675.00,0.0011
3662.00,0.0010
3649.00,0.0011
3636.00,0.0012
3623.00,0.0015
3610.00,0.0015
3597.00,0.0016
3584.00,0.0016
3571.00,0.0016
3558.00,0.0016
3545.00,0.0016
3532.00,0.0017
3519.00,0.0017
3506.00,0.0018
3493.00,0.0018
3480.00,0.0019
3467.00,0.0019
3454.00,0.0019
3441.00,0.0019
3428.00,0.0019
3415.00,0.0019
3402.00,0.0019
3389.00,0.0019
3376.00,0.0020
3363.00,0.0019
3350.00,0.0019
3337.00,0.0020
3324.00,0.0019
3311.00,0.0018
3298.00,0.0019
3285.00,0.0019
3272.00,0.0019
3259.00,0.0018
3246.00,0.0018
3233.00,0.0018
3220.00,0.0017
3207.00,0.0018
3194.00,0.0018
3181.00,0.0017
3168.00,0.0018
3155.00,0.0018
3142.00,0.0018
3129.00,0.0018
3116.00,0.0023
3103.00,0.0043
3090.00,0.0057
3077.00,0.0083
3064.00,0.0120
3051.00,0.0088
3038.00,0.0096
3025.00,0.0269
3012.00,0.0072
2999.00,0.0050
2986.00,0.0005
2973.00,0.0004
2960.00,0.0037
2947.00,0.0095
2934.00,0.0218
2921.00,0.0312
2908.00,0.0234
2895.00,0.0132
2882.00,0.0088
2869.00,0.0074
2856.00,0.0120
2843.00,0.0117
2830.00,0.0043
2817.00,0.0033
2804.00,0.0030
2791.00,0.0028
2778.00,0.0026
2765.00,0.0025
2752.00,0.0024
2739.00,0.0024
2726.00,0.0024
2713.00,0.0025
2700.00,0.0024
2687.00,0.0024
2674.00,0.0024
2661.00,0.0027
2648.00,0.0028
2635.00,0.0030
2622.00,0.0027
2609.00,0.0026
2596.00,0.0025
2583.00,0.0024
2570.00,0.0022
2557.00,0.0021
2544.00,0.0021
2531.00,0.0020
2518.00,0.0020
2505.00,0.0020
2492.00,0.0019
2479.00,0.0018
2466.00,0.0018
2453.00,0.0019
2440.00,0.0017
2427.00,0.0016
2414.00,0.0015
2401.00,0.0014
2388.00,0.0014
2375.00,0.0014
2362.00,0.0016
2349.00,0.0018
2336.00,0.0022
2323.00,0.0032
2310.00,0.0025
2297.00,0.0024
2284.00,0.0026
2271.00,0.0022
2258.00,0.0020
2245.00,0.0020
2232.00,0.0018
2219.00,0.0017
2206.00,0.0014
2193.00,0.0018
2180.00,0.0012
2167.00,0.0026
2154.00,-0.0011
2141.00,-0.0005
2128.00,-0.0002
2115.00,0.0013
2102.00,0.0012
2089.00,0.0011
2076.00,0.0014
2063.00,0.0010
2050.00,0.0017
2037.00,0.0010
2024.00,0.0003
2011.00,0.0007
1998.00,0.0008
1985.00,0.0021
1972.00,0.0010
1959.00,0.0020
1946.00,0.0038
1933.00,0.0025
1920.00,0.0014
1907.00,0.0012
1894.00,0.0020
1881.00,0.0035
1868.00,0.0040
1855.00,0.0022
1842.00,0.0015
1829.00,0.0020
1816.00,0.0030
1803.00,0.0048
1790.00,0.0031
1777.00,0.0026
1764.00,0.0029
1751.00,0.0048
1738.00,0.0053
1725.00,0.0042
1712.00,0.0036
1699.00,0.0033
1686.00,0.0036
1673.00,0.0039
1660.00,0.0038
1647.00,0.0032
1634.00,0.0031
1621.00,0.0037
1608.00,0.0109
1595.00,0.0143
1582.00,0.0114
1569.00,0.0036
1556.00,0.0036
1543.00,0.0049
1530.00,0.0039
1517.00,0.0036
1504.00,0.0064
1491.00,0.0630
1478.00,0.0079
1465.00,0.0079
1452.00,0.0709
1439.00,0.0256
1426.00,0.0078
1413.00,0.0055
1400.00,0.0046
1387.00,0.0082
1374.00,0.0142
1361.00,0.0137
1348.00,0.0124
1335.00,0.0113
1322.00,0.0121
1309.00,0.0125
1296.00,0.0102
1283.00,0.0092
1270.00,0.0069
1257.00,0.0061
1244.00,0.0064
1231.00,0.0064
1218.00,0.0070
1205.00,0.0088
1192.00,0.0108
1179.00,0.0134
1166.00,0.0074
1153.00,0.0132
1140.00,0.0051
1127.00,0.0053
1114.00,0.0077
1101.00,0.0078
1088.00,0.0095
1075.00,0.0161
1062.00,0.0160
1049.00,0.0108
1036.00,0.0157
1023.00,0.0273
1010.00,0.0145
997.00,0.0115
984.00,0.0131
971.00,0.0121
958.00,0.0113
945.00,0.0115
932.00,0.0086
919.00,0.0106
906.00,0.0255
893.00,0.0095
880.00,0.0068
867.00,0.0062
854.00,0.0068
841.00,0.0131
828.00,0.0059
815.00,0.0059
802.00,0.0067
789.00,0.0129
776.00,0.0326
763.00,0.0866
750.00,0.1123
737.00,0.0469
724.00,0.0131
711.00,0.0294
698.00,0.3230
685.00,0.1065
672.00,0.0473
659.00,0.0279
646.00,0.0177
633.00,0.0198
620.00,0.0239
607.00,0.0183
594.00,0.0206
581.00,0.0260
568.00,0.0441
555.00,0.0643
542.00,0.1021
529.00,0.0717
516.00,0.0356
503.00,0.0235
490.00,0.0178
477.00,0.0151
464.00,0.0129
451.00,0.0133
438.00,0.0122
425.00,0.0097
412.00,0.0112
400.00,0.0097

File: 2025_06_26_Polystyrene_Std_OAG_scan2.csv
Created as New Dataset,Sample 722 By YargerLab Date Thursday, June 26 2025
cm-1,A
4000.00,0.0025
3987.00,0.0025
3974.00,0.0025
3961.00,0.0024
3948.00,0.0024
3935.00,0.0025
3922.00,0.0024
3909.00,0.0025
3896.00,0.0023
3883.00,0.0024
3870.00,0.0023
3857.00,0.0023
3844.00,0.0024
3831.00,0.0024
3818.00,0.0024
3805.00,0.0023
3792.00,0.0024
3779.00,0.0025
3766.00,0.0024
3753.00,0.0023
3740.00,0.0023
3727.00,0.0023
3714.00,0.0023
3701.00,0.0024
3688.00,0.0022
3675.00,0.0017
3662.00,0.0017
3649.00,0.0018
3636.00,0.0019
3623.00,0.0022
3610.00,0.0022
3597.00,0.0024
3584.00,0.0024
3571.00,0.0023
3558.00,0.0024
3545.00,0.0024
3532.00,0.0025
3519.00,0.0026
3506.00,0.0026
3493.00,0.0027
3480.00,0.0027
3467.00,0.0028
3454.00,0.0028
3441.00,0.0028
3428.00,0.0028
3415.00,0.0028
3402.00,0.0029
3389.00,0.0029
3376.00,0.0029
3363.00,0.0029
3350.00,0.0029
3337.00,0.0029
3324.00,0.0028
3311.00,0.0028
3298.00,0.0029
3285.00,0.0028
3272.00,0.0029
3259.00,0.0028
3246.00,0.0028
3233.00,0.0028
3220.00,0.0026
3207.00,0.0028
3194.00,0.0028
3181.00,0.0027
3168.00,0.0029
3155.00,0.0028
3142.00,0.0028
3129.00,0.0028
3116.00,0.0033
3103.00,0.0057
3090.00,0.0074
3077.00,0.0104
3064.00,0.0149
3051.00,0.0110
3038.00,0.0120
3025.00,0.0325
3012.00,0.0091
2999.00,0.0066
2986.00,0.0014
2973.00,0.0012
2960.00,0.0053
2947.00,0.0122
2934.00,0.0272
2921.00,0.0386
2908.00,0.0289
2895.00,0.0166
2882.00,0.0113
2869.00,0.0096
2856.00,0.0152
2843.00,0.0147
2830.00,0.0059
2817.00,0.0046
2804.00,0.0043
2791.00,0.0039
2778.00,0.0038
2765.00,0.0036
2752.00,0.0035
2739.00,0.0035
2726.00,0.0035
2713.00,0.0035
2700.00,0.0035
2687.00,0.0034
2674.00,0.0035
2661.00,0.0037
2648.00,0.0039
2635.00,0.0040
2622.00,0.0037
2609.00,0.0036
2596.00,0.0035
2583.00,0.0034
2570.00,0.0032
2557.00,0.0031
2544.00,0.0030
2531.00,0.0029
2518.00,0.0029
2505.00,0.0030
2492.00,0.0029
2479.00,0.0028
2466.00,0.0027
2453.00,0.0028
2440.00,0.0026
2427.00,0.0024
2414.00,0.0025
2401.00,0.0023
2388.00,0.0023
2375.00,0.0023
2362.00,0.0026
2349.00,0.0028
2336.00,0.0033
2323.00,0.0041
2310.00,0.0036
2297.00,0.0034
2284.00,0.0035
2271.00,0.0031
2258.00,0.0029
2245.00,0.0028
2232.00,0.0026
2219.00,0.0025
2206.00,0.0024
2193.00,0.0026
2180.00,0.0018
2167.00,0.0034
2154.00,-0.0003
2141.00,0.0003
2128.00,0.0007
2115.00,0.0019
2102.00,0.0019
2089.00,0.0019
2076.00,0.0020
2063.00,0.0018
2050.00,0.0028
2037.00,0.0020
2024.00,0.0010
2011.00,0.0013
1998.00,0.0017
1985.00,0.0028
1972.00,0.0016
1959.00,0.0030
1946.00,0.0054
1933.00,0.0035
1920.00,0.0024
1907.00,0.0021
1894.00,0.0030
1881.00,0.0047
1868.00,0.0053
1855.00,0.0032
1842.00,0.0024
1829.00,0.0029
1816.00,0.0042
1803.00,0.0061
1790.00,0.0041
1777.00,0.0036
1764.00,0.0039
1751.00,0.0063
1738.00,0.0071
1725.00,0.0059
1712.00,0.0049
1699.00,0.0046
1686.00,0.0049
1673.00,0.0054
1660.00,0.0052
1647.00,0.0045
1634.00,0.0044
1621.00,0.0051
1608.00,0.0137
1595.00,0.0176
1582.00,0.0141
1569.00,0.0050
1556.00,0.0049
1543.00,0.0064
1530.00,0.0051
1517.00,0.0047
1504.00,0.0079
1491.00,0.0735
1478.00,0.0098
1465.00,0.0099
1452.00,0.0836
1439.00,0.0303
1426.00,0.0099
1413.00,0.0073
1400.00,0.0063
1387.00,0.0103
1374.00,0.0174
1361.00,0.0173
1348.00,0.0155
1335.00,0.0136
1322.00,0.0145
1309.00,0.0150
1296.00,0.0122
1283.00,0.0111
1270.00,0.0087
1257.00,0.0078
1244.00,0.0080
1231.00,0.0080
1218.00,0.0085
1205.00,0.0107
1192.00,0.0129
1179.00,0.0158
1166.00,0.0090
1153.00,0.0156
1140.00,0.0064
1127.00,0.0065
1114.00,0.0095
1101.00,0.0096
1088.00,0.0114
1075.00,0.0186
1062.00,0.0185
1049.00,0.0128
1036.00,0.0183
1023.00,0.0313
1010.00,0.0167
997.00,0.0132
984.00,0.0150
971.00,0.0137
958.00,0.0127
945.00,0.0129
932.00,0.0097
919.00,0.0121
906.00,0.0285
893.00,0.0108
880.00,0.0079
867.00,0.0071
854.00,0.0078
841.00,0.0148
828.00,0.0070
815.00,0.0070
802.00,0.0079
789.00,0.0147
776.00,0.0365
763.00,0.0964
750.00,0.1249
737.00,0.0518
724.00,0.0147
711.00,0.0326
698.00,0.3548
685.00,0.1147
672.00,0.0511
659.00,0.0305
646.00,0.0196
633.00,0.0218
620.00,0.0262
607.00,0.0201
594.00,0.0223
581.00,0.0284
568.00,0.0484
555.00,0.0698
542.00,0.1107
529.00,0.0771
516.00,0.0377
503.00,0.0250
490.00,0.0190
477.00,0.0159
464.00,0.0140
451.00,0.0145
438.00,0.0138
425.00,0.0097
412.00,0.0122
400.00,0.0114

File: 2025_06_26_Polystyrene_Std_OAG_scan3.csv
Created as New Dataset,Sample 723 By YargerLab Date Thursday, June 26 2025
cm-1,A
4000.00,0.0020
3987.00,0.0019
3974.00,0.0019
3961.00,0.0019
3948.00,0.0019
3935.00,0.0019
3922.00,0.0018
3909.00,0.0019
3896.00,0.0018
3883.00,0.0018
3870.00,0.0018
3857.00,0.0018
3844.00,0.0019
3831.00,0.0018
3818.00,0.0018
3805.00,0.0019
3792.00,0.0019
3779.00,0.0019
3766.00,0.0019
3753.00,0.0019
3740.00,0.0018
3727.00,0.0017
3714.00,0.0018
3701.00,0.0018
3688.00,0.0016
3675.00,0.0012
3662.00,0.0012
3649.00,0.0013
3636.00,0.0013
3623.00,0.0016
3610.00,0.0017
3597.00,0.0017
3584.00,0.0017
3571.00,0.0017
3558.00,0.0017
3545.00,0.0018
3532.00,0.0018
3519.00,0.0018
3506.00,0.0019
3493.00,0.0019
3480.00,0.0020
3467.00,0.0020
3454.00,0.0020
3441.00,0.0020
3428.00,0.0020
3415.00,0.0020
3402.00,0.0020
3389.00,0.0020
3376.00,0.0021
3363.00,0.0020
3350.00,0.0020
3337.00,0.0020
3324.00,0.0020
3311.00,0.0020
3298.00,0.0020
3285.00,0.0020
3272.00,0.0020
3259.00,0.0019
3246.00,0.0019
3233.00,0.0019
3220.00,0.0018
3207.00,0.0020
3194.00,0.0019
3181.00,0.0018
3168.00,0.0019
3155.00,0.0019
3142.00,0.0019
3129.00,0.0019
3116.00,0.0025
3103.00,0.0050
3090.00,0.0067
3077.00,0.0097
3064.00,0.0142
3051.00,0.0103
3038.00,0.0114
3025.00,0.0319
3012.00,0.0084
2999.00,0.0060
2986.00,0.0007
2973.00,0.0003
2960.00,0.0041
2947.00,0.0112
2934.00,0.0258
2921.00,0.0369
2908.00,0.0277
2895.00,0.0156
2882.00,0.0104
2869.00,0.0086
2856.00,0.0139
2843.00,0.0136
2830.00,0.0049
2817.00,0.0037
2804.00,0.0034
2791.00,0.0031
2778.00,0.0030
2765.00,0.0027
2752.00,0.0026
2739.00,0.0026
2726.00,0.0027
2713.00,0.0027
2700.00,0.0026
2687.00,0.0026
2674.00,0.0026
2661.00,0.0029
2648.00,0.0031
2635.00,0.0032
2622.00,0.0029
2609.00,0.0029
2596.00,0.0027
2583.00,0.0026
2570.00,0.0024
2557.00,0.0023
2544.00,0.0023
2531.00,0.0022
2518.00,0.0021
2505.00,0.0022
2492.00,0.0021
2479.00,0.0020
2466.00,0.0019
2453.00,0.0020
2440.00,0.0019
2427.00,0.0017
2414.00,0.0017
2401.00,0.0015
2388.00,0.0016
2375.00,0.0017
2362.00,0.0018
2349.00,0.0021
2336.00,0.0026
2323.00,0.0035
2310.00,0.0029
2297.00,0.0027
2284.00,0.0028
2271.00,0.0023
2258.00,0.0022
2245.00,0.0020
2232.00,0.0017
2219.00,0.0019
2206.00,0.0016
2193.00,0.0019
2180.00,0.0012
2167.00,0.0028
2154.00,-0.0011
2141.00,-0.0003
2128.00,-0.0002
2115.00,0.0013
2102.00,0.0012
2089.00,0.0011
2076.00,0.0013
2063.00,0.0009
2050.00,0.0021
2037.00,0.0013
2024.00,0.0001
2011.00,0.0005
1998.00,0.0008
1985.00,0.0023
1972.00,0.0008
1959.00,0.0022
1946.00,0.0045
1933.00,0.0028
1920.00,0.0016
1907.00,0.0013
1894.00,0.0022
1881.00,0.0039
1868.00,0.0045
1855.00,0.0024
1842.00,0.0017
1829.00,0.0021
1816.00,0.0034
1803.00,0.0053
1790.00,0.0033
1777.00,0.0028
1764.00,0.0030
1751.00,0.0051
1738.00,0.0056
1725.00,0.0044
1712.00,0.0035
1699.00,0.0033
1686.00,0.0037
1673.00,0.0041
1660.00,0.0038
1647.00,0.0031
1634.00,0.0030
1621.00,0.0037
1608.00,0.0124
1595.00,0.0162
1582.00,0.0128
1569.00,0.0038
1556.00,0.0037
1543.00,0.0053
1530.00,0.0039
1517.00,0.0037
1504.00,0.0070
1491.00,0.0722
1478.00,0.0087
1465.00,0.0085
1452.00,0.0818
1439.00,0.0287
1426.00,0.0084
1413.00,0.0059
1400.00,0.0049
1387.00,0.0089
1374.00,0.0157
1361.00,0.0152
1348.00,0.0138
1335.00,0.0124
1322.00,0.0133
1309.00,0.0137
1296.00,0.0110
1283.00,0.0099
1270.00,0.0074
1257.00,0.0063
1244.00,0.0067
1231.00,0.0067
1218.00,0.0073
1205.00,0.0095
1192.00,0.0117
1179.00,0.0146
1166.00,0.0078
1153.00,0.0144
1140.00,0.0052
1127.00,0.0052
1114.00,0.0082
1101.00,0.0085
1088.00,0.0103
1075.00,0.0176
1062.00,0.0176
1049.00,0.0119
1036.00,0.0176
1023.00,0.0303
1010.00,0.0159
997.00,0.0126
984.00,0.0143
971.00,0.0131
958.00,0.0121
945.00,0.0121
932.00,0.0090
919.00,0.0114
906.00,0.0278
893.00,0.0102
880.00,0.0071
867.00,0.0063
854.00,0.0070
841.00,0.0141
828.00,0.0061
815.00,0.0060
802.00,0.0071
789.00,0.0139
776.00,0.0356
763.00,0.0950
750.00,0.1229
737.00,0.0509
724.00,0.0139
711.00,0.0321
698.00,0.3528
685.00,0.1119
672.00,0.0497
659.00,0.0294
646.00,0.0187
633.00,0.0210
620.00,0.0254
607.00,0.0192
594.00,0.0216
581.00,0.0278
568.00,0.0470
555.00,0.0685
542.00,0.1090
529.00,0.0760
516.00,0.0374
503.00,0.0241
490.00,0.0185
477.00,0.0157
464.00,0.0138
451.00,0.0140
438.00,0.0121
425.00,0.0099
412.00,0.0119
400.00,0.0086