Folder: Data/FTIR/Olivia (part 6)

File: 2025_07_10_Polystyrene_Std_OAG_scan1.csv
Created as New Dataset,Sample 807 By YargerLab Date Wednesday, July 09 2025
cm-1,A
4000.00,0.0020
3987.00,0.0019
3974.00,0.0019
3961.00,0.0019
3948.00,0.0020
3935.00,0.0020
3922.00,0.0020
3909.00,0.0020
3896.00,0.0019
3883.00,0.0020
3870.00,0.0020
3857.00,0.0021
3844.00,0.0020
3831.00,0.0019
3818.00,0.0022
3805.00,0.0021
3792.00,0.0020
3779.00,0.0019
3766.00,0.0021
3753.00,0.0023
3740.00,0.0021
3727.00,0.0020
3714.00,0.0020
3701.00,0.0019
3688.00,0.0020
3675.00,0.0020
3662.00,0.0019
3649.00,0.0022
3636.00,0.0020
3623.00,0.0020
3610.00,0.0021
3597.00,0.0022
3584.00,0.0022
3571.00,0.0023
3558.00,0.0024
3545.00,0.0025
3532.00,0.0027
3519.00,0.0027
3506.00,0.0029
3493.00,0.0029
3480.00,0.0030
3467.00,0.0031
3454.00,0.0032
3441.00,0.0033
3428.00,0.0032
3415.00,0.0033
3402.00,0.0033
3389.00,0.0032
3376.00,0.0032
3363.00,0.0031
3350.00,0.0031
3337.00,0.0031
3324.00,0.0031
3311.00,0.0030
3298.00,0.0030
3285.00,0.0029
3272.00,0.0029
3259.00,0.0028
3246.00,0.0028
3233.00,0.0028
3220.00,0.0028
3207.00,0.0028
3194.00,0.0027
3181.00,0.0026
3168.00,0.0026
3155.00,0.0026
3142.00,0.0025
3129.00,0.0025
3116.00,0.0029
3103.00,0.0050
3090.00,0.0065
3077.00,0.0090
3064.00,0.0128
3051.00,0.0096
3038.00,0.0104
3025.00,0.0279
3012.00,0.0087
2999.00,0.0084
2986.00,0.0050
2973.00,0.0059
2960.00,0.0076
2947.00,0.0125
2934.00,0.0244
2921.00,0.0339
2908.00,0.0260
2895.00,0.0156
2882.00,0.0111
2869.00,0.0091
2856.00,0.0133
2843.00,0.0126
2830.00,0.0049
2817.00,0.0038
2804.00,0.0035
2791.00,0.0031
2778.00,0.0029
2765.00,0.0027
2752.00,0.0027
2739.00,0.0026
2726.00,0.0027
2713.00,0.0026
2700.00,0.0026
2687.00,0.0026
2674.00,0.0026
2661.00,0.0030
2648.00,0.0031
2635.00,0.0031
2622.00,0.0029
2609.00,0.0028
2596.00,0.0026
2583.00,0.0026
2570.00,0.0022
2557.00,0.0022
2544.00,0.0022
2531.00,0.0021
2518.00,0.0020
2505.00,0.0020
2492.00,0.0020
2479.00,0.0018
2466.00,0.0018
2453.00,0.0019
2440.00,0.0017
2427.00,0.0016
2414.00,0.0015
2401.00,0.0014
2388.00,0.0013
2375.00,0.0014
2362.00,0.0016
2349.00,0.0017
2336.00,0.0021
2323.00,0.0029
2310.00,0.0023
2297.00,0.0024
2284.00,0.0025
2271.00,0.0023
2258.00,0.0021
2245.00,0.0017
2232.00,0.0017
2219.00,0.0016
2206.00,0.0015
2193.00,0.0019
2180.00,0.0008
2167.00,0.0026
2154.00,-0.0014
2141.00,-0.0006
2128.00,-0.0003
2115.00,0.0011
2102.00,0.0011
2089.00,0.0008
2076.00,0.0012
2063.00,0.0010
2050.00,0.0018
2037.00,0.0013
2024.00,0.0002
2011.00,0.0004
1998.00,0.0007
1985.00,0.0018
1972.00,0.0004
1959.00,0.0017
1946.00,0.0037
1933.00,0.0020
1920.00,0.0011
1907.00,0.0010
1894.00,0.0019
1881.00,0.0031
1868.00,0.0036
1855.00,0.0018
1842.00,0.0012
1829.00,0.0017
1816.00,0.0026
1803.00,0.0044
1790.00,0.0027
1777.00,0.0023
1764.00,0.0026
1751.00,0.0043
1738.00,0.0053
1725.00,0.0045
1712.00,0.0039
1699.00,0.0037
1686.00,0.0038
1673.00,0.0045
1660.00,0.0047
1647.00,0.0040
1634.00,0.0039
1621.00,0.0043
1608.00,0.0114
1595.00,0.0144
1582.00,0.0115
1569.00,0.0037
1556.00,0.0035
1543.00,0.0046
1530.00,0.0035
1517.00,0.0033
1504.00,0.0063
1491.00,0.0616
1478.00,0.0081
1465.00,0.0086
1452.00,0.0690
1439.00,0.0260
1426.00,0.0094
1413.00,0.0078
1400.00,0.0073
1387.00,0.0105
1374.00,0.0160
1361.00,0.0150
1348.00,0.0133
1335.00,0.0116
1322.00,0.0122
1309.00,0.0124
1296.00,0.0101
1283.00,0.0093
1270.00,0.0074
1257.00,0.0068
1244.00,0.0073
1231.00,0.0070
1218.00,0.0071
1205.00,0.0088
1192.00,0.0109
1179.00,0.0141
1166.00,0.0092
1153.00,0.0156
1140.00,0.0153
1127.00,0.0104
1114.00,0.0091
1101.00,0.0088
1088.00,0.0106
1075.00,0.0168
1062.00,0.0165
1049.00,0.0113
1036.00,0.0156
1023.00,0.0263
1010.00,0.0140
997.00,0.0110
984.00,0.0126
971.00,0.0127
958.00,0.0126
945.00,0.0125
932.00,0.0093
919.00,0.0102
906.00,0.0241
893.00,0.0088
880.00,0.0062
867.00,0.0056
854.00,0.0063
841.00,0.0122
828.00,0.0056
815.00,0.0054
802.00,0.0065
789.00,0.0120
776.00,0.0303
763.00,0.0798
750.00,0.1035
737.00,0.0435
724.00,0.0122
711.00,0.0274
698.00,0.2800
685.00,0.0965
672.00,0.0433
659.00,0.0256
646.00,0.0162
633.00,0.0181
620.00,0.0219
607.00,0.0169
594.00,0.0187
581.00,0.0242
568.00,0.0412
555.00,0.0588
542.00,0.0932
529.00,0.0658
516.00,0.0325
503.00,0.0209
490.00,0.0164
477.00,0.0144
464.00,0.0125
451.00,0.0114
438.00,0.0112
425.00,0.0092
412.00,0.0089
400.00,0.0108

File: 2025_07_10_Polystyrene_Std_OAG_scan2.csv
Created as New Dataset,Sample 808 By YargerLab Date Thursday, July 10 2025
cm-1,A
4000.00,0.0012
3987.00,0.0012
3974.00,0.0012
3961.00,0.0012
3948.00,0.0012
3935.00,0.0013
3922.00,0.0012
3909.00,0.0012
3896.00,0.0012
3883.00,0.0012
3870.00,0.0012
3857.00,0.0013
3844.00,0.0012
3831.00,0.0012
3818.00,0.0014
3805.00,0.0013
3792.00,0.0012
3779.00,0.0012
3766.00,0.0013
3753.00,0.0014
3740.00,0.0014
3727.00,0.0013
3714.00,0.0012
3701.00,0.0012
3688.00,0.0011
3675.00,0.0013
3662.00,0.0012
3649.00,0.0014
3636.00,0.0013
3623.00,0.0013
3610.00,0.0014
3597.00,0.0013
3584.00,0.0016
3571.00,0.0016
3558.00,0.0017
3545.00,0.0018
3532.00,0.0019
3519.00,0.0019
3506.00,0.0020
3493.00,0.0022
3480.00,0.0023
3467.00,0.0024
3454.00,0.0024
3441.00,0.0025
3428.00,0.0025
3415.00,0.0026
3402.00,0.0026
3389.00,0.0026
3376.00,0.0026
3363.00,0.0025
3350.00,0.0025
3337.00,0.0025
3324.00,0.0024
3311.00,0.0024
3298.00,0.0024
3285.00,0.0023
3272.00,0.0024
3259.00,0.0022
3246.00,0.0022
3233.00,0.0021
3220.00,0.0021
3207.00,0.0021
3194.00,0.0020
3181.00,0.0020
3168.00,0.0019
3155.00,0.0019
3142.00,0.0018
3129.00,0.0018
3116.00,0.0022
3103.00,0.0037
3090.00,0.0049
3077.00,0.0070
3064.00,0.0098
3051.00,0.0074
3038.00,0.0080
3025.00,0.0219
3012.00,0.0068
2999.00,0.0065
2986.00,0.0037
2973.00,0.0046
2960.00,0.0055
2947.00,0.0094
2934.00,0.0185
2921.00,0.0259
2908.00,0.0200
2895.00,0.0120
2882.00,0.0084
2869.00,0.0068
2856.00,0.0100
2843.00,0.0097
2830.00,0.0036
2817.00,0.0028
2804.00,0.0026
2791.00,0.0023
2778.00,0.0022
2765.00,0.0020
2752.00,0.0020
2739.00,0.0020
2726.00,0.0020
2713.00,0.0020
2700.00,0.0019
2687.00,0.0020
2674.00,0.0020
2661.00,0.0023
2648.00,0.0024
2635.00,0.0024
2622.00,0.0023
2609.00,0.0022
2596.00,0.0020
2583.00,0.0020
2570.00,0.0017
2557.00,0.0017
2544.00,0.0017
2531.00,0.0016
2518.00,0.0015
2505.00,0.0015
2492.00,0.0015
2479.00,0.0014
2466.00,0.0014
2453.00,0.0015
2440.00,0.0013
2427.00,0.0012
2414.00,0.0011
2401.00,0.0010
2388.00,0.0009
2375.00,0.0010
2362.00,0.0011
2349.00,0.0011
2336.00,0.0017
2323.00,0.0024
2310.00,0.0018
2297.00,0.0020
2284.00,0.0023
2271.00,0.0019
2258.00,0.0018
2245.00,0.0015
2232.00,0.0015
2219.00,0.0014
2206.00,0.0014
2193.00,0.0016
2180.00,0.0009
2167.00,0.0023
2154.00,-0.0014
2141.00,-0.0004
2128.00,-0.0003
2115.00,0.0009
2102.00,0.0009
2089.00,0.0007
2076.00,0.0011
2063.00,0.0007
2050.00,0.0018
2037.00,0.0012
2024.00,0.0002
2011.00,0.0003
1998.00,0.0009
1985.00,0.0016
1972.00,0.0004
1959.00,0.0013
1946.00,0.0030
1933.00,0.0016
1920.00,0.0009
1907.00,0.0008
1894.00,0.0016
1881.00,0.0025
1868.00,0.0031
1855.00,0.0016
1842.00,0.0011
1829.00,0.0015
1816.00,0.0022
1803.00,0.0037
1790.00,0.0023
1777.00,0.0019
1764.00,0.0022
1751.00,0.0034
1738.00,0.0041
1725.00,0.0034
1712.00,0.0029
1699.00,0.0027
1686.00,0.0028
1673.00,0.0033
1660.00,0.0032
1647.00,0.0028
1634.00,0.0029
1621.00,0.0033
1608.00,0.0090
1595.00,0.0118
1582.00,0.0095
1569.00,0.0030
1556.00,0.0029
1543.00,0.0039
1530.00,0.0029
1517.00,0.0028
1504.00,0.0052
1491.00,0.0513
1478.00,0.0068
1465.00,0.0070
1452.00,0.0568
1439.00,0.0217
1426.00,0.0080
1413.00,0.0070
1400.00,0.0064
1387.00,0.0087
1374.00,0.0135
1361.00,0.0125
1348.00,0.0112
1335.00,0.0100
1322.00,0.0104
1309.00,0.0106
1296.00,0.0086
1283.00,0.0079
1270.00,0.0065
1257.00,0.0060
1244.00,0.0063
1231.00,0.0060
1218.00,0.0062
1205.00,0.0077
1192.00,0.0095
1179.00,0.0123
1166.00,0.0084
1153.00,0.0141
1140.00,0.0167
1127.00,0.0111
1114.00,0.0088
1101.00,0.0084
1088.00,0.0100
1075.00,0.0154
1062.00,0.0154
1049.00,0.0110
1036.00,0.0147
1023.00,0.0242
1010.00,0.0136
997.00,0.0111
984.00,0.0124
971.00,0.0122
958.00,0.0122
945.00,0.0120
932.00,0.0091
919.00,0.0097
906.00,0.0218
893.00,0.0085
880.00,0.0061
867.00,0.0057
854.00,0.0059
841.00,0.0112
828.00,0.0055
815.00,0.0054
802.00,0.0062
789.00,0.0112
776.00,0.0273
763.00,0.0714
750.00,0.0926
737.00,0.0394
724.00,0.0116
711.00,0.0251
698.00,0.2559
685.00,0.0911
672.00,0.0413
659.00,0.0251
646.00,0.0161
633.00,0.0176
620.00,0.0213
607.00,0.0165
594.00,0.0183
581.00,0.0234
568.00,0.0388
555.00,0.0553
542.00,0.0871
529.00,0.0627
516.00,0.0318
503.00,0.0213
490.00,0.0170
477.00,0.0146
464.00,0.0131
451.00,0.0126
438.00,0.0114
425.00,0.0105
412.00,0.0104
400.00,0.0111

File: 2025_07_10_Polystyrene_Std_OAG_scan3.csv
Created as New Dataset,Sample 809 By YargerLab Date Thursday, July 10 2025
cm-1,A
4000.00,0.0035
3987.00,0.0035
3974.00,0.0035
3961.00,0.0035
3948.00,0.0035
3935.00,0.0036
3922.00,0.0035
3909.00,0.0035
3896.00,0.0035
3883.00,0.0035
3870.00,0.0035
3857.00,0.0035
3844.00,0.0036
3831.00,0.0035
3818.00,0.0036
3805.00,0.0036
3792.00,0.0035
3779.00,0.0035
3766.00,0.0036
3753.00,0.0036
3740.00,0.0036
3727.00,0.0035
3714.00,0.0035
3701.00,0.0036
3688.00,0.0033
3675.00,0.0035
3662.00,0.0035
3649.00,0.0038
3636.00,0.0036
3623.00,0.0036
3610.00,0.0037
3597.00,0.0037
3584.00,0.0039
3571.00,0.0040
3558.00,0.0041
3545.00,0.0043
3532.00,0.0043
3519.00,0.0043
3506.00,0.0043
3493.00,0.0042
3480.00,0.0043
3467.00,0.0044
3454.00,0.0044
3441.00,0.0045
3428.00,0.0044
3415.00,0.0045
3402.00,0.0045
3389.00,0.0045
3376.00,0.0044
3363.00,0.0043
3350.00,0.0043
3337.00,0.0042
3324.00,0.0042
3311.00,0.0041
3298.00,0.0041
3285.00,0.0041
3272.00,0.0041
3259.00,0.0040
3246.00,0.0040
3233.00,0.0039
3220.00,0.0038
3207.00,0.0039
3194.00,0.0038
3181.00,0.0037
3168.00,0.0037
3155.00,0.0037
3142.00,0.0036
3129.00,0.0036
3116.00,0.0039
3103.00,0.0055
3090.00,0.0066
3077.00,0.0086
3064.00,0.0113
3051.00,0.0091
3038.00,0.0097
3025.00,0.0232
3012.00,0.0086
2999.00,0.0082
2986.00,0.0053
2973.00,0.0061
2960.00,0.0069
2947.00,0.0106
2934.00,0.0190
2921.00,0.0267
2908.00,0.0216
2895.00,0.0138
2882.00,0.0103
2869.00,0.0086
2856.00,0.0114
2843.00,0.0116
2830.00,0.0056
2817.00,0.0047
2804.00,0.0045
2791.00,0.0042
2778.00,0.0041
2765.00,0.0039
2752.00,0.0038
2739.00,0.0038
2726.00,0.0038
2713.00,0.0038
2700.00,0.0038
2687.00,0.0038
2674.00,0.0038
2661.00,0.0041
2648.00,0.0042
2635.00,0.0042
2622.00,0.0040
2609.00,0.0040
2596.00,0.0038
2583.00,0.0037
2570.00,0.0034
2557.00,0.0034
2544.00,0.0034
2531.00,0.0034
2518.00,0.0033
2505.00,0.0032
2492.00,0.0032
2479.00,0.0031
2466.00,0.0031
2453.00,0.0032
2440.00,0.0031
2427.00,0.0030
2414.00,0.0028
2401.00,0.0027
2388.00,0.0026
2375.00,0.0027
2362.00,0.0028
2349.00,0.0029
2336.00,0.0034
2323.00,0.0042
2310.00,0.0036
2297.00,0.0037
2284.00,0.0039
2271.00,0.0035
2258.00,0.0034
2245.00,0.0031
2232.00,0.0031
2219.00,0.0029
2206.00,0.0028
2193.00,0.0033
2180.00,0.0024
2167.00,0.0040
2154.00,0.0001
2141.00,0.0009
2128.00,0.0012
2115.00,0.0026
2102.00,0.0025
2089.00,0.0023
2076.00,0.0026
2063.00,0.0023
2050.00,0.0034
2037.00,0.0029
2024.00,0.0015
2011.00,0.0017
1998.00,0.0020
1985.00,0.0032
1972.00,0.0018
1959.00,0.0026
1946.00,0.0042
1933.00,0.0030
1920.00,0.0024
1907.00,0.0023
1894.00,0.0029
1881.00,0.0039
1868.00,0.0043
1855.00,0.0030
1842.00,0.0025
1829.00,0.0029
1816.00,0.0035
1803.00,0.0049
1790.00,0.0036
1777.00,0.0033
1764.00,0.0035
1751.00,0.0046
1738.00,0.0053
1725.00,0.0045
1712.00,0.0040
1699.00,0.0040
1686.00,0.0043
1673.00,0.0049
1660.00,0.0048
1647.00,0.0045
1634.00,0.0045
1621.00,0.0049
1608.00,0.0103
1595.00,0.0130
1582.00,0.0108
1569.00,0.0047
1556.00,0.0046
1543.00,0.0056
1530.00,0.0047
1517.00,0.0046
1504.00,0.0068
1491.00,0.0510
1478.00,0.0087
1465.00,0.0086
1452.00,0.0559
1439.00,0.0229
1426.00,0.0097
1413.00,0.0084
1400.00,0.0076
1387.00,0.0096
1374.00,0.0138
1361.00,0.0130
1348.00,0.0117
1335.00,0.0106
1322.00,0.0109
1309.00,0.0110
1296.00,0.0091
1283.00,0.0085
1270.00,0.0071
1257.00,0.0067
1244.00,0.0069
1231.00,0.0068
1218.00,0.0070
1205.00,0.0085
1192.00,0.0105
1179.00,0.0136
1166.00,0.0102
1153.00,0.0158
1140.00,0.0178
1127.00,0.0127
1114.00,0.0109
1101.00,0.0106
1088.00,0.0120
1075.00,0.0170
1062.00,0.0168
1049.00,0.0127
1036.00,0.0162
1023.00,0.0251
1010.00,0.0148
997.00,0.0119
984.00,0.0128
971.00,0.0125
958.00,0.0125
945.00,0.0121
932.00,0.0095
919.00,0.0101
906.00,0.0215
893.00,0.0087
880.00,0.0069
867.00,0.0064
854.00,0.0065
841.00,0.0114
828.00,0.0061
815.00,0.0059
802.00,0.0068
789.00,0.0114
776.00,0.0264
763.00,0.0676
750.00,0.0886
737.00,0.0388
724.00,0.0116
711.00,0.0242
698.00,0.2369
685.00,0.0890
672.00,0.0406
659.00,0.0249
646.00,0.0164
633.00,0.0178
620.00,0.0212
607.00,0.0168
594.00,0.0180
581.00,0.0227
568.00,0.0370
555.00,0.0528
542.00,0.0839
529.00,0.0620
516.00,0.0321
503.00,0.0216
490.00,0.0177
477.00,0.0158
464.00,0.0151
451.00,0.0135
438.00,0.0128
425.00,0.0104
412.00,0.0097
400.00,0.0137

File: 2025_07_15_Polystyrene_Std_scan1.csv
Created as New Dataset,Sample 819 By YargerLab Date Friday, July 11 2025
cm-1,A
4000.00,0.0016
3987.00,0.0015
3974.00,0.0015
3961.00,0.0015
3948.00,0.0015
3935.00,0.0015
3922.00,0.0014
3909.00,0.0014
3896.00,0.0012
3883.00,0.0012
3870.00,0.0011
3857.00,0.0011
3844.00,0.0012
3831.00,0.0013
3818.00,0.0011
3805.00,0.0012
3792.00,0.0015
3779.00,0.0015
3766.00,0.0014
3753.00,0.0012
3740.00,0.0011
3727.00,0.0013
3714.00,0.0011
3701.00,0.0014
3688.00,0.0010
3675.00,0.0004
3662.00,0.0008
3649.00,0.0004
3636.00,0.0010
3623.00,0.0013
3610.00,0.0012
3597.00,0.0015
3584.00,0.0015
3571.00,0.0016
3558.00,0.0017
3545.00,0.0018
3532.00,0.0020
3519.00,0.0020
3506.00,0.0020
3493.00,0.0022
3480.00,0.0022
3467.00,0.0023
3454.00,0.0023
3441.00,0.0023
3428.00,0.0023
3415.00,0.0024
3402.00,0.0024
3389.00,0.0023
3376.00,0.0023
3363.00,0.0023
3350.00,0.0023
3337.00,0.0023
3324.00,0.0023
3311.00,0.0022
3298.00,0.0023
3285.00,0.0023
3272.00,0.0023
3259.00,0.0022
3246.00,0.0022
3233.00,0.0020
3220.00,0.0020
3207.00,0.0021
3194.00,0.0020
3181.00,0.0019
3168.00,0.0020
3155.00,0.0020
3142.00,0.0019
3129.00,0.0020
3116.00,0.0023
3103.00,0.0041
3090.00,0.0054
3077.00,0.0077
3064.00,0.0108
3051.00,0.0082
3038.00,0.0088
3025.00,0.0239
3012.00,0.0064
2999.00,0.0035
2986.00,-0.0013
2973.00,-0.0017
2960.00,0.0021
2947.00,0.0079
2934.00,0.0188
2921.00,0.0272
2908.00,0.0202
2895.00,0.0111
2882.00,0.0072
2869.00,0.0063
2856.00,0.0104
2843.00,0.0103
2830.00,0.0038
2817.00,0.0030
2804.00,0.0027
2791.00,0.0026
2778.00,0.0024
2765.00,0.0023
2752.00,0.0022
2739.00,0.0022
2726.00,0.0023
2713.00,0.0023
2700.00,0.0023
2687.00,0.0022
2674.00,0.0022
2661.00,0.0025
2648.00,0.0027
2635.00,0.0028
2622.00,0.0026
2609.00,0.0026
2596.00,0.0024
2583.00,0.0024
2570.00,0.0022
2557.00,0.0021
2544.00,0.0020
2531.00,0.0020
2518.00,0.0020
2505.00,0.0019
2492.00,0.0018
2479.00,0.0018
2466.00,0.0018
2453.00,0.0019
2440.00,0.0016
2427.00,0.0016
2414.00,0.0015
2401.00,0.0013
2388.00,0.0013
2375.00,0.0014
2362.00,0.0017
2349.00,0.0018
2336.00,0.0022
2323.00,0.0032
2310.00,0.0025
2297.00,0.0024
2284.00,0.0027
2271.00,0.0023
2258.00,0.0023
2245.00,0.0018
2232.00,0.0017
2219.00,0.0016
2206.00,0.0017
2193.00,0.0018
2180.00,0.0012
2167.00,0.0029
2154.00,-0.0009
2141.00,-0.0001
2128.00,0.0001
2115.00,0.0013
2102.00,0.0013
2089.00,0.0012
2076.00,0.0014
2063.00,0.0010
2050.00,0.0020
2037.00,0.0013
2024.00,0.0007
2011.00,0.0006
1998.00,0.0008
1985.00,0.0020
1972.00,0.0004
1959.00,0.0015
1946.00,0.0035
1933.00,0.0022
1920.00,0.0012
1907.00,0.0012
1894.00,0.0020
1881.00,0.0032
1868.00,0.0036
1855.00,0.0018
1842.00,0.0013
1829.00,0.0019
1816.00,0.0027
1803.00,0.0044
1790.00,0.0028
1777.00,0.0024
1764.00,0.0026
1751.00,0.0043
1738.00,0.0047
1725.00,0.0040
1712.00,0.0035
1699.00,0.0035
1686.00,0.0042
1673.00,0.0053
1660.00,0.0053
1647.00,0.0042
1634.00,0.0036
1621.00,0.0039
1608.00,0.0101
1595.00,0.0131
1582.00,0.0104
1569.00,0.0035
1556.00,0.0033
1543.00,0.0047
1530.00,0.0036
1517.00,0.0035
1504.00,0.0057
1491.00,0.0560
1478.00,0.0073
1465.00,0.0072
1452.00,0.0617
1439.00,0.0231
1426.00,0.0075
1413.00,0.0051
1400.00,0.0039
1387.00,0.0065
1374.00,0.0118
1361.00,0.0119
1348.00,0.0109
1335.00,0.0101
1322.00,0.0110
1309.00,0.0113
1296.00,0.0095
1283.00,0.0084
1270.00,0.0061
1257.00,0.0048
1244.00,0.0052
1231.00,0.0055
1218.00,0.0063
1205.00,0.0081
1192.00,0.0099
1179.00,0.0117
1166.00,0.0061
1153.00,0.0109
1140.00,0.0039
1127.00,0.0042
1114.00,0.0066
1101.00,0.0068
1088.00,0.0080
1075.00,0.0137
1062.00,0.0138
1049.00,0.0096
1036.00,0.0140
1023.00,0.0240
1010.00,0.0130
997.00,0.0104
984.00,0.0117
971.00,0.0102
958.00,0.0091
945.00,0.0092
932.00,0.0072
919.00,0.0093
906.00,0.0225
893.00,0.0084
880.00,0.0061
867.00,0.0054
854.00,0.0061
841.00,0.0115
828.00,0.0051
815.00,0.0050
802.00,0.0060
789.00,0.0115
776.00,0.0285
763.00,0.0749
750.00,0.0979
737.00,0.0414
724.00,0.0115
711.00,0.0257
698.00,0.2617
685.00,0.0955
672.00,0.0423
659.00,0.0252
646.00,0.0159
633.00,0.0174
620.00,0.0209
607.00,0.0162
594.00,0.0179
581.00,0.0231
568.00,0.0390
555.00,0.0566
542.00,0.0897
529.00,0.0643
516.00,0.0313
503.00,0.0209
490.00,0.0160
477.00,0.0134
464.00,0.0124
451.00,0.0117
438.00,0.0108
425.00,0.0104
412.00,0.0092
400.00,0.0102

File: 2025_07_15_Polystyrene_Std_scan2.csv
Created as New Dataset,Sample 820 By YargerLab Date Tuesday, July 15 2025
cm-1,A
4000.00,0.0019
3987.00,0.0017
3974.00,0.0018
3961.00,0.0017
3948.00,0.0017
3935.00,0.0017
3922.00,0.0016
3909.00,0.0016
3896.00,0.0015
3883.00,0.0014
3870.00,0.0014
3857.00,0.0015
3844.00,0.0015
3831.00,0.0016
3818.00,0.0015
3805.00,0.0015
3792.00,0.0017
3779.00,0.0017
3766.00,0.0016
3753.00,0.0015
3740.00,0.0015
3727.00,0.0015
3714.00,0.0014
3701.00,0.0016
3688.00,0.0013
3675.00,0.0007
3662.00,0.0008
3649.00,0.0006
3636.00,0.0011
3623.00,0.0016
3610.00,0.0015
3597.00,0.0018
3584.00,0.0019
3571.00,0.0019
3558.00,0.0021
3545.00,0.0022
3532.00,0.0023
3519.00,0.0024
3506.00,0.0024
3493.00,0.0026
3480.00,0.0026
3467.00,0.0027
3454.00,0.0028
3441.00,0.0028
3428.00,0.0028
3415.00,0.0028
3402.00,0.0028
3389.00,0.0027
3376.00,0.0027
3363.00,0.0028
3350.00,0.0027
3337.00,0.0027
3324.00,0.0027
3311.00,0.0027
3298.00,0.0026
3285.00,0.0026
3272.00,0.0026
3259.00,0.0026
3246.00,0.0025
3233.00,0.0024
3220.00,0.0023
3207.00,0.0025
3194.00,0.0024
3181.00,0.0023
3168.00,0.0024
3155.00,0.0024
3142.00,0.0022
3129.00,0.0023
3116.00,0.0029
3103.00,0.0052
3090.00,0.0070
3077.00,0.0099
3064.00,0.0144
3051.00,0.0105
3038.00,0.0114
3025.00,0.0319
3012.00,0.0081
2999.00,0.0046
2986.00,-0.0016
2973.00,-0.0022
2960.00,0.0029
2947.00,0.0105
2934.00,0.0255
2921.00,0.0371
2908.00,0.0271
2895.00,0.0147
2882.00,0.0095
2869.00,0.0082
2856.00,0.0139
2843.00,0.0135
2830.00,0.0048
2817.00,0.0037
2804.00,0.0033
2791.00,0.0030
2778.00,0.0029
2765.00,0.0027
2752.00,0.0026
2739.00,0.0026
2726.00,0.0026
2713.00,0.0027
2700.00,0.0027
2687.00,0.0026
2674.00,0.0026
2661.00,0.0029
2648.00,0.0030
2635.00,0.0031
2622.00,0.0029
2609.00,0.0029
2596.00,0.0028
2583.00,0.0027
2570.00,0.0024
2557.00,0.0024
2544.00,0.0022
2531.00,0.0021
2518.00,0.0022
2505.00,0.0021
2492.00,0.0020
2479.00,0.0020
2466.00,0.0019
2453.00,0.0020
2440.00,0.0018
2427.00,0.0017
2414.00,0.0016
2401.00,0.0015
2388.00,0.0015
2375.00,0.0015
2362.00,0.0018
2349.00,0.0020
2336.00,0.0024
2323.00,0.0033
2310.00,0.0028
2297.00,0.0025
2284.00,0.0028
2271.00,0.0024
2258.00,0.0023
2245.00,0.0019
2232.00,0.0018
2219.00,0.0017
2206.00,0.0016
2193.00,0.0019
2180.00,0.0012
2167.00,0.0026
2154.00,-0.0010
2141.00,-0.0002
2128.00,0.0001
2115.00,0.0013
2102.00,0.0013
2089.00,0.0012
2076.00,0.0015
2063.00,0.0010
2050.00,0.0017
2037.00,0.0013
2024.00,0.0009
2011.00,0.0006
1998.00,0.0008
1985.00,0.0020
1972.00,0.0009
1959.00,0.0020
1946.00,0.0046
1933.00,0.0028
1920.00,0.0015
1907.00,0.0013
1894.00,0.0024
1881.00,0.0039
1868.00,0.0046
1855.00,0.0023
1842.00,0.0016
1829.00,0.0023
1816.00,0.0034
1803.00,0.0054
1790.00,0.0033
1777.00,0.0028
1764.00,0.0031
1751.00,0.0053
1738.00,0.0058
1725.00,0.0048
1712.00,0.0042
1699.00,0.0044
1686.00,0.0054
1673.00,0.0065
1660.00,0.0063
1647.00,0.0051
1634.00,0.0043
1621.00,0.0047
1608.00,0.0128
1595.00,0.0165
1582.00,0.0132
1569.00,0.0044
1556.00,0.0042
1543.00,0.0061
1530.00,0.0043
1517.00,0.0042
1504.00,0.0072
1491.00,0.0712
1478.00,0.0092
1465.00,0.0092
1452.00,0.0796
1439.00,0.0290
1426.00,0.0094
1413.00,0.0064
1400.00,0.0049
1387.00,0.0082
1374.00,0.0152
1361.00,0.0153
1348.00,0.0138
1335.00,0.0126
1322.00,0.0136
1309.00,0.0140
1296.00,0.0116
1283.00,0.0102
1270.00,0.0072
1257.00,0.0057
1244.00,0.0063
1231.00,0.0067
1218.00,0.0076
1205.00,0.0099
1192.00,0.0120
1179.00,0.0143
1166.00,0.0072
1153.00,0.0130
1140.00,0.0045
1127.00,0.0048
1114.00,0.0077
1101.00,0.0079
1088.00,0.0093
1075.00,0.0163
1062.00,0.0166
1049.00,0.0116
1036.00,0.0171
1023.00,0.0293
1010.00,0.0158
997.00,0.0124
984.00,0.0140
971.00,0.0120
958.00,0.0105
945.00,0.0105
932.00,0.0083
919.00,0.0110
906.00,0.0272
893.00,0.0099
880.00,0.0071
867.00,0.0063
854.00,0.0070
841.00,0.0137
828.00,0.0061
815.00,0.0058
802.00,0.0070
789.00,0.0136
776.00,0.0345
763.00,0.0911
750.00,0.1186
737.00,0.0492
724.00,0.0139
711.00,0.0307
698.00,0.3200
685.00,0.1104
672.00,0.0489
659.00,0.0289
646.00,0.0184
633.00,0.0205
620.00,0.0246
607.00,0.0190
594.00,0.0213
581.00,0.0274
568.00,0.0463
555.00,0.0669
542.00,0.1058
529.00,0.0748
516.00,0.0360
503.00,0.0238
490.00,0.0181
477.00,0.0152
464.00,0.0144
451.00,0.0129
438.00,0.0126
425.00,0.0112
412.00,0.0113
400.00,0.0092

File: 2025_07_15_Polystyrene_Std_scan3.csv
Created as New Dataset,Sample 821 By YargerLab Date Tuesday, July 15 2025
cm-1,A
4000.00,0.0014
3987.00,0.0014
3974.00,0.0014
3961.00,0.0014
3948.00,0.0013
3935.00,0.0013
3922.00,0.0012
3909.00,0.0013
3896.00,0.0011
3883.00,0.0010
3870.00,0.0009
3857.00,0.0010
3844.00,0.0012
3831.00,0.0012
3818.00,0.0010
3805.00,0.0011
3792.00,0.0013
3779.00,0.0013
3766.00,0.0013
3753.00,0.0010
3740.00,0.0009
3727.00,0.0011
3714.00,0.0010
3701.00,0.0012
3688.00,0.0008
3675.00,0.0002
3662.00,0.0003
3649.00,-0.0000
3636.00,0.0006
3623.00,0.0010
3610.00,0.0010
3597.00,0.0013
3584.00,0.0013
3571.00,0.0014
3558.00,0.0015
3545.00,0.0015
3532.00,0.0017
3519.00,0.0017
3506.00,0.0017
3493.00,0.0019
3480.00,0.0018
3467.00,0.0019
3454.00,0.0020
3441.00,0.0020
3428.00,0.0019
3415.00,0.0019
3402.00,0.0020
3389.00,0.0019
3376.00,0.0019
3363.00,0.0019
3350.00,0.0019
3337.00,0.0019
3324.00,0.0019
3311.00,0.0019
3298.00,0.0019
3285.00,0.0018
3272.00,0.0019
3259.00,0.0018
3246.00,0.0017
3233.00,0.0016
3220.00,0.0016
3207.00,0.0017
3194.00,0.0016
3181.00,0.0015
3168.00,0.0017
3155.00,0.0016
3142.00,0.0016
3129.00,0.0016
3116.00,0.0021
3103.00,0.0038
3090.00,0.0051
3077.00,0.0074
3064.00,0.0106
3051.00,0.0079
3038.00,0.0085
3025.00,0.0237
3012.00,0.0058
2999.00,0.0022
2986.00,-0.0032
2973.00,-0.0041
2960.00,0.0005
2947.00,0.0067
2934.00,0.0177
2921.00,0.0262
2908.00,0.0193
2895.00,0.0101
2882.00,0.0062
2869.00,0.0055
2856.00,0.0098
2843.00,0.0099
2830.00,0.0034
2817.00,0.0025
2804.00,0.0024
2791.00,0.0021
2778.00,0.0020
2765.00,0.0019
2752.00,0.0018
2739.00,0.0019
2726.00,0.0019
2713.00,0.0019
2700.00,0.0019
2687.00,0.0019
2674.00,0.0018
2661.00,0.0021
2648.00,0.0023
2635.00,0.0023
2622.00,0.0022
2609.00,0.0021
2596.00,0.0020
2583.00,0.0020
2570.00,0.0017
2557.00,0.0017
2544.00,0.0016
2531.00,0.0016
2518.00,0.0015
2505.00,0.0015
2492.00,0.0014
2479.00,0.0014
2466.00,0.0014
2453.00,0.0015
2440.00,0.0013
2427.00,0.0012
2414.00,0.0011
2401.00,0.0010
2388.00,0.0010
2375.00,0.0010
2362.00,0.0011
2349.00,0.0013
2336.00,0.0016
2323.00,0.0026
2310.00,0.0021
2297.00,0.0019
2284.00,0.0022
2271.00,0.0018
2258.00,0.0018
2245.00,0.0015
2232.00,0.0015
2219.00,0.0013
2206.00,0.0013
2193.00,0.0015
2180.00,0.0008
2167.00,0.0023
2154.00,-0.0012
2141.00,-0.0004
2128.00,-0.0003
2115.00,0.0009
2102.00,0.0007
2089.00,0.0008
2076.00,0.0010
2063.00,0.0008
2050.00,0.0016
2037.00,0.0008
2024.00,0.0002
2011.00,0.0002
1998.00,0.0004
1985.00,0.0015
1972.00,0.0001
1959.00,0.0014
1946.00,0.0031
1933.00,0.0020
1920.00,0.0008
1907.00,0.0007
1894.00,0.0016
1881.00,0.0028
1868.00,0.0032
1855.00,0.0015
1842.00,0.0010
1829.00,0.0014
1816.00,0.0023
1803.00,0.0039
1790.00,0.0023
1777.00,0.0018
1764.00,0.0021
1751.00,0.0037
1738.00,0.0043
1725.00,0.0035
1712.00,0.0029
1699.00,0.0029
1686.00,0.0036
1673.00,0.0042
1660.00,0.0041
1647.00,0.0033
1634.00,0.0029
1621.00,0.0032
1608.00,0.0094
1595.00,0.0123
1582.00,0.0098
1569.00,0.0031
1556.00,0.0028
1543.00,0.0041
1530.00,0.0030
1517.00,0.0029
1504.00,0.0051
1491.00,0.0536
1478.00,0.0065
1465.00,0.0063
1452.00,0.0587
1439.00,0.0217
1426.00,0.0066
1413.00,0.0044
1400.00,0.0028
1387.00,0.0050
1374.00,0.0105
1361.00,0.0110
1348.00,0.0102
1335.00,0.0092
1322.00,0.0101
1309.00,0.0104
1296.00,0.0086
1283.00,0.0075
1270.00,0.0050
1257.00,0.0038
1244.00,0.0042
1231.00,0.0046
1218.00,0.0056
1205.00,0.0074
1192.00,0.0090
1179.00,0.0107
1166.00,0.0049
1153.00,0.0093
1140.00,0.0028
1127.00,0.0032
1114.00,0.0057
1101.00,0.0060
1088.00,0.0069
1075.00,0.0122
1062.00,0.0126
1049.00,0.0089
1036.00,0.0133
1023.00,0.0230
1010.00,0.0123
997.00,0.0098
984.00,0.0110
971.00,0.0090
958.00,0.0077
945.00,0.0078
932.00,0.0064
919.00,0.0088
906.00,0.0217
893.00,0.0080
880.00,0.0057
867.00,0.0050
854.00,0.0056
841.00,0.0109
828.00,0.0046
815.00,0.0044
802.00,0.0054
789.00,0.0110
776.00,0.0275
763.00,0.0725
750.00,0.0947
737.00,0.0400
724.00,0.0111
711.00,0.0249
698.00,0.2546
685.00,0.0940
672.00,0.0415
659.00,0.0245
646.00,0.0153
633.00,0.0170
620.00,0.0207
607.00,0.0155
594.00,0.0178
581.00,0.0227
568.00,0.0383
555.00,0.0557
542.00,0.0888
529.00,0.0638
516.00,0.0311
503.00,0.0207
490.00,0.0158
477.00,0.0138
464.00,0.0126
451.00,0.0116
438.00,0.0105
425.00,0.0099
412.00,0.0085
400.00,0.0088