Folder: Data/FTIR/Olivia (part 22)

File: 2025_08_06_1CBN_3PVP40_MP_Powder_Scan3.csv
Created as New Dataset,Sample 1087 By YargerLab Date Wednesday, August 06 2025
cm-1,A
4000.00,0.0091
3987.00,0.0091
3974.00,0.0092
3961.00,0.0092
3948.00,0.0090
3935.00,0.0091
3922.00,0.0091
3909.00,0.0090
3896.00,0.0089
3883.00,0.0088
3870.00,0.0089
3857.00,0.0089
3844.00,0.0089
3831.00,0.0089
3818.00,0.0088
3805.00,0.0088
3792.00,0.0088
3779.00,0.0089
3766.00,0.0088
3753.00,0.0088
3740.00,0.0086
3727.00,0.0085
3714.00,0.0086
3701.00,0.0086
3688.00,0.0087
3675.00,0.0087
3662.00,0.0089
3649.00,0.0091
3636.00,0.0095
3623.00,0.0100
3610.00,0.0106
3597.00,0.0114
3584.00,0.0122
3571.00,0.0133
3558.00,0.0144
3545.00,0.0156
3532.00,0.0168
3519.00,0.0177
3506.00,0.0189
3493.00,0.0202
3480.00,0.0219
3467.00,0.0240
3454.00,0.0264
3441.00,0.0292
3428.00,0.0329
3415.00,0.0372
3402.00,0.0398
3389.00,0.0385
3376.00,0.0356
3363.00,0.0328
3350.00,0.0309
3337.00,0.0300
3324.00,0.0299
3311.00,0.0305
3298.00,0.0317
3285.00,0.0332
3272.00,0.0345
3259.00,0.0360
3246.00,0.0371
3233.00,0.0373
3220.00,0.0366
3207.00,0.0348
3194.00,0.0320
3181.00,0.0291
3168.00,0.0262
3155.00,0.0234
3142.00,0.0209
3129.00,0.0192
3116.00,0.0179
3103.00,0.0163
3090.00,0.0160
3077.00,0.0158
3064.00,0.0154
3051.00,0.0155
3038.00,0.0159
3025.00,0.0157
3012.00,0.0150
2999.00,0.0189
2986.00,0.0264
2973.00,0.0383
2960.00,0.0501
2947.00,0.0400
2934.00,0.0603
2921.00,0.0693
2908.00,0.0454
2895.00,0.0352
2882.00,0.0314
2869.00,0.0377
2856.00,0.0536
2843.00,0.0313
2830.00,0.0204
2817.00,0.0169
2804.00,0.0154
2791.00,0.0143
2778.00,0.0135
2765.00,0.0132
2752.00,0.0131
2739.00,0.0134
2726.00,0.0139
2713.00,0.0133
2700.00,0.0131
2687.00,0.0127
2674.00,0.0126
2661.00,0.0132
2648.00,0.0133
2635.00,0.0128
2622.00,0.0123
2609.00,0.0122
2596.00,0.0125
2583.00,0.0125
2570.00,0.0122
2557.00,0.0119
2544.00,0.0116
2531.00,0.0116
2518.00,0.0112
2505.00,0.0110
2492.00,0.0107
2479.00,0.0106
2466.00,0.0105
2453.00,0.0107
2440.00,0.0104
2427.00,0.0102
2414.00,0.0102
2401.00,0.0099
2388.00,0.0099
2375.00,0.0096
2362.00,0.0096
2349.00,0.0097
2336.00,0.0101
2323.00,0.0111
2310.00,0.0103
2297.00,0.0105
2284.00,0.0109
2271.00,0.0102
2258.00,0.0098
2245.00,0.0097
2232.00,0.0098
2219.00,0.0095
2206.00,0.0097
2193.00,0.0098
2180.00,0.0094
2167.00,0.0104
2154.00,0.0072
2141.00,0.0077
2128.00,0.0082
2115.00,0.0093
2102.00,0.0089
2089.00,0.0088
2076.00,0.0094
2063.00,0.0085
2050.00,0.0093
2037.00,0.0090
2024.00,0.0081
2011.00,0.0087
1998.00,0.0081
1985.00,0.0089
1972.00,0.0076
1959.00,0.0073
1946.00,0.0079
1933.00,0.0079
1920.00,0.0084
1907.00,0.0100
1894.00,0.0093
1881.00,0.0085
1868.00,0.0083
1855.00,0.0087
1842.00,0.0092
1829.00,0.0085
1816.00,0.0084
1803.00,0.0088
1790.00,0.0092
1777.00,0.0095
1764.00,0.0097
1751.00,0.0098
1738.00,0.0104
1725.00,0.0125
1712.00,0.0154
1699.00,0.0235
1686.00,0.0440
1673.00,0.0672
1660.00,0.0829
1647.00,0.0854
1634.00,0.0710
1621.00,0.1084
1608.00,0.0752
1595.00,0.0406
1582.00,0.0708
1569.00,0.0432
1556.00,0.0235
1543.00,0.0194
1530.00,0.0179
1517.00,0.0213
1504.00,0.0298
1491.00,0.0447
1478.00,0.0254
1465.00,0.0634
1452.00,0.0549
1439.00,0.0813
1426.00,0.0997
1413.00,0.0709
1400.00,0.0860
1387.00,0.0600
1374.00,0.0517
1361.00,0.0692
1348.00,0.0526
1335.00,0.0403
1322.00,0.0467
1309.00,0.0453
1296.00,0.0772
1283.00,0.1037
1270.00,0.0772
1257.00,0.0514
1244.00,0.0595
1231.00,0.0771
1218.00,0.0607
1205.00,0.0485
1192.00,0.0753
1179.00,0.0387
1166.00,0.0381
1153.00,0.0728
1140.00,0.0331
1127.00,0.0847
1114.00,0.0424
1101.00,0.0565
1088.00,0.0306
1075.00,0.0312
1062.00,0.0478
1049.00,0.1124
1036.00,0.0574
1023.00,0.0835
1010.00,0.0399
997.00,0.0474
984.00,0.0300
971.00,0.0274
958.00,0.0253
945.00,0.0232
932.00,0.0320
919.00,0.0310
906.00,0.0234
893.00,0.0313
880.00,0.0269
867.00,0.0630
854.00,0.0497
841.00,0.0480
828.00,0.0479
815.00,0.0814
802.00,0.0267
789.00,0.0250
776.00,0.0311
763.00,0.0309
750.00,0.0350
737.00,0.0554
724.00,0.0481
711.00,0.0467
698.00,0.0511
685.00,0.0542
672.00,0.0655
659.00,0.0697
646.00,0.0673
633.00,0.0621
620.00,0.0685
607.00,0.0679
594.00,0.0798
581.00,0.0824
568.00,0.0809
555.00,0.0825
542.00,0.0846
529.00,0.0850
516.00,0.0690
503.00,0.0703
490.00,0.0710
477.00,0.0677
464.00,0.0657
451.00,0.0638
438.00,0.0613
425.00,0.0560
412.00,0.0590
400.00,0.0537

File: 2025_08_06_1CBN_3PVP90_MP_Powder_Scan1.csv
Created as New Dataset,Sample 002 By YargerLab Date Wednesday, August 06 2025
cm-1,A
4000.00,0.0021
3987.00,0.0022
3974.00,0.0022
3961.00,0.0022
3948.00,0.0021
3935.00,0.0021
3922.00,0.0021
3909.00,0.0022
3896.00,0.0021
3883.00,0.0020
3870.00,0.0020
3857.00,0.0020
3844.00,0.0021
3831.00,0.0021
3818.00,0.0020
3805.00,0.0020
3792.00,0.0021
3779.00,0.0021
3766.00,0.0021
3753.00,0.0020
3740.00,0.0020
3727.00,0.0019
3714.00,0.0019
3701.00,0.0019
3688.00,0.0019
3675.00,0.0017
3662.00,0.0019
3649.00,0.0017
3636.00,0.0018
3623.00,0.0018
3610.00,0.0018
3597.00,0.0018
3584.00,0.0017
3571.00,0.0018
3558.00,0.0019
3545.00,0.0021
3532.00,0.0023
3519.00,0.0024
3506.00,0.0027
3493.00,0.0029
3480.00,0.0033
3467.00,0.0038
3454.00,0.0044
3441.00,0.0051
3428.00,0.0061
3415.00,0.0073
3402.00,0.0082
3389.00,0.0082
3376.00,0.0075
3363.00,0.0069
3350.00,0.0064
3337.00,0.0061
3324.00,0.0061
3311.00,0.0063
3298.00,0.0066
3285.00,0.0071
3272.00,0.0075
3259.00,0.0081
3246.00,0.0086
3233.00,0.0089
3220.00,0.0090
3207.00,0.0086
3194.00,0.0081
3181.00,0.0074
3168.00,0.0068
3155.00,0.0060
3142.00,0.0053
3129.00,0.0048
3116.00,0.0045
3103.00,0.0041
3090.00,0.0040
3077.00,0.0040
3064.00,0.0038
3051.00,0.0039
3038.00,0.0040
3025.00,0.0039
3012.00,0.0036
2999.00,0.0046
2986.00,0.0063
2973.00,0.0096
2960.00,0.0127
2947.00,0.0099
2934.00,0.0159
2921.00,0.0191
2908.00,0.0125
2895.00,0.0093
2882.00,0.0081
2869.00,0.0100
2856.00,0.0150
2843.00,0.0093
2830.00,0.0058
2817.00,0.0046
2804.00,0.0042
2791.00,0.0039
2778.00,0.0036
2765.00,0.0035
2752.00,0.0035
2739.00,0.0036
2726.00,0.0038
2713.00,0.0036
2700.00,0.0035
2687.00,0.0034
2674.00,0.0033
2661.00,0.0037
2648.00,0.0039
2635.00,0.0037
2622.00,0.0035
2609.00,0.0034
2596.00,0.0034
2583.00,0.0034
2570.00,0.0032
2557.00,0.0031
2544.00,0.0030
2531.00,0.0030
2518.00,0.0029
2505.00,0.0027
2492.00,0.0027
2479.00,0.0027
2466.00,0.0027
2453.00,0.0027
2440.00,0.0026
2427.00,0.0024
2414.00,0.0024
2401.00,0.0023
2388.00,0.0021
2375.00,0.0017
2362.00,0.0018
2349.00,0.0019
2336.00,0.0022
2323.00,0.0031
2310.00,0.0021
2297.00,0.0025
2284.00,0.0032
2271.00,0.0028
2258.00,0.0023
2245.00,0.0024
2232.00,0.0026
2219.00,0.0024
2206.00,0.0024
2193.00,0.0024
2180.00,0.0024
2167.00,0.0028
2154.00,0.0004
2141.00,0.0008
2128.00,0.0011
2115.00,0.0020
2102.00,0.0017
2089.00,0.0019
2076.00,0.0021
2063.00,0.0018
2050.00,0.0027
2037.00,0.0023
2024.00,0.0016
2011.00,0.0013
1998.00,0.0017
1985.00,0.0024
1972.00,0.0014
1959.00,0.0008
1946.00,0.0011
1933.00,0.0015
1920.00,0.0018
1907.00,0.0023
1894.00,0.0020
1881.00,0.0018
1868.00,0.0018
1855.00,0.0019
1842.00,0.0020
1829.00,0.0018
1816.00,0.0018
1803.00,0.0020
1790.00,0.0022
1777.00,0.0022
1764.00,0.0022
1751.00,0.0021
1738.00,0.0022
1725.00,0.0026
1712.00,0.0030
1699.00,0.0043
1686.00,0.0076
1673.00,0.0075
1660.00,0.0069
1647.00,0.0062
1634.00,0.0070
1621.00,0.0258
1608.00,0.0197
1595.00,0.0100
1582.00,0.0216
1569.00,0.0132
1556.00,0.0065
1543.00,0.0052
1530.00,0.0047
1517.00,0.0059
1504.00,0.0077
1491.00,0.0115
1478.00,0.0062
1465.00,0.0148
1452.00,0.0133
1439.00,0.0185
1426.00,0.0238
1413.00,0.0178
1400.00,0.0275
1387.00,0.0183
1374.00,0.0145
1361.00,0.0215
1348.00,0.0168
1335.00,0.0122
1322.00,0.0121
1309.00,0.0116
1296.00,0.0188
1283.00,0.0235
1270.00,0.0139
1257.00,0.0106
1244.00,0.0156
1231.00,0.0221
1218.00,0.0159
1205.00,0.0128
1192.00,0.0238
1179.00,0.0101
1166.00,0.0090
1153.00,0.0229
1140.00,0.0091
1127.00,0.0282
1114.00,0.0129
1101.00,0.0177
1088.00,0.0083
1075.00,0.0080
1062.00,0.0143
1049.00,0.0383
1036.00,0.0195
1023.00,0.0293
1010.00,0.0128
997.00,0.0156
984.00,0.0093
971.00,0.0085
958.00,0.0078
945.00,0.0068
932.00,0.0097
919.00,0.0099
906.00,0.0069
893.00,0.0097
880.00,0.0084
867.00,0.0228
854.00,0.0162
841.00,0.0153
828.00,0.0167
815.00,0.0317
802.00,0.0079
789.00,0.0068
776.00,0.0088
763.00,0.0079
750.00,0.0079
737.00,0.0151
724.00,0.0133
711.00,0.0130
698.00,0.0140
685.00,0.0145
672.00,0.0181
659.00,0.0175
646.00,0.0144
633.00,0.0134
620.00,0.0170
607.00,0.0164
594.00,0.0217
581.00,0.0199
568.00,0.0180
555.00,0.0203
542.00,0.0222
529.00,0.0226
516.00,0.0146
503.00,0.0151
490.00,0.0155
477.00,0.0128
464.00,0.0123
451.00,0.0125
438.00,0.0130
425.00,0.0126
412.00,0.0134
400.00,0.0119

File: 2025_08_06_1CBN_3PVP90_MP_Powder_Scan2.csv
Created as New Dataset,Sample 003 By YargerLab Date Wednesday, August 06 2025
cm-1,A
4000.00,0.0025
3987.00,0.0025
3974.00,0.0025
3961.00,0.0025
3948.00,0.0025
3935.00,0.0025
3922.00,0.0025
3909.00,0.0025
3896.00,0.0024
3883.00,0.0024
3870.00,0.0025
3857.00,0.0025
3844.00,0.0025
3831.00,0.0024
3818.00,0.0025
3805.00,0.0024
3792.00,0.0024
3779.00,0.0024
3766.00,0.0025
3753.00,0.0025
3740.00,0.0024
3727.00,0.0022
3714.00,0.0022
3701.00,0.0022
3688.00,0.0022
3675.00,0.0021
3662.00,0.0021
3649.00,0.0021
3636.00,0.0020
3623.00,0.0021
3610.00,0.0021
3597.00,0.0020
3584.00,0.0019
3571.00,0.0019
3558.00,0.0021
3545.00,0.0021
3532.00,0.0024
3519.00,0.0026
3506.00,0.0029
3493.00,0.0031
3480.00,0.0036
3467.00,0.0043
3454.00,0.0051
3441.00,0.0061
3428.00,0.0074
3415.00,0.0089
3402.00,0.0101
3389.00,0.0100
3376.00,0.0090
3363.00,0.0082
3350.00,0.0077
3337.00,0.0074
3324.00,0.0074
3311.00,0.0077
3298.00,0.0082
3285.00,0.0087
3272.00,0.0094
3259.00,0.0101
3246.00,0.0108
3233.00,0.0111
3220.00,0.0112
3207.00,0.0107
3194.00,0.0100
3181.00,0.0092
3168.00,0.0083
3155.00,0.0073
3142.00,0.0065
3129.00,0.0059
3116.00,0.0055
3103.00,0.0049
3090.00,0.0048
3077.00,0.0048
3064.00,0.0047
3051.00,0.0047
3038.00,0.0048
3025.00,0.0047
3012.00,0.0043
2999.00,0.0055
2986.00,0.0075
2973.00,0.0116
2960.00,0.0153
2947.00,0.0118
2934.00,0.0198
2921.00,0.0234
2908.00,0.0150
2895.00,0.0109
2882.00,0.0095
2869.00,0.0120
2856.00,0.0184
2843.00,0.0109
2830.00,0.0067
2817.00,0.0054
2804.00,0.0049
2791.00,0.0046
2778.00,0.0042
2765.00,0.0041
2752.00,0.0041
2739.00,0.0042
2726.00,0.0044
2713.00,0.0042
2700.00,0.0041
2687.00,0.0040
2674.00,0.0039
2661.00,0.0043
2648.00,0.0044
2635.00,0.0043
2622.00,0.0040
2609.00,0.0039
2596.00,0.0040
2583.00,0.0039
2570.00,0.0037
2557.00,0.0036
2544.00,0.0035
2531.00,0.0035
2518.00,0.0032
2505.00,0.0032
2492.00,0.0031
2479.00,0.0030
2466.00,0.0030
2453.00,0.0031
2440.00,0.0029
2427.00,0.0028
2414.00,0.0028
2401.00,0.0027
2388.00,0.0026
2375.00,0.0020
2362.00,0.0020
2349.00,0.0021
2336.00,0.0024
2323.00,0.0034
2310.00,0.0026
2297.00,0.0029
2284.00,0.0034
2271.00,0.0030
2258.00,0.0027
2245.00,0.0027
2232.00,0.0028
2219.00,0.0027
2206.00,0.0028
2193.00,0.0027
2180.00,0.0027
2167.00,0.0034
2154.00,0.0005
2141.00,0.0011
2128.00,0.0013
2115.00,0.0022
2102.00,0.0022
2089.00,0.0020
2076.00,0.0025
2063.00,0.0021
2050.00,0.0029
2037.00,0.0024
2024.00,0.0017
2011.00,0.0017
1998.00,0.0017
1985.00,0.0028
1972.00,0.0013
1959.00,0.0010
1946.00,0.0015
1933.00,0.0017
1920.00,0.0020
1907.00,0.0027
1894.00,0.0024
1881.00,0.0022
1868.00,0.0021
1855.00,0.0022
1842.00,0.0024
1829.00,0.0022
1816.00,0.0020
1803.00,0.0023
1790.00,0.0025
1777.00,0.0025
1764.00,0.0026
1751.00,0.0024
1738.00,0.0025
1725.00,0.0029
1712.00,0.0032
1699.00,0.0046
1686.00,0.0071
1673.00,0.0070
1660.00,0.0062
1647.00,0.0055
1634.00,0.0077
1621.00,0.0315
1608.00,0.0235
1595.00,0.0117
1582.00,0.0263
1569.00,0.0160
1556.00,0.0077
1543.00,0.0059
1530.00,0.0054
1517.00,0.0069
1504.00,0.0091
1491.00,0.0131
1478.00,0.0071
1465.00,0.0173
1452.00,0.0154
1439.00,0.0215
1426.00,0.0271
1413.00,0.0200
1400.00,0.0331
1387.00,0.0218
1374.00,0.0165
1361.00,0.0258
1348.00,0.0199
1335.00,0.0141
1322.00,0.0138
1309.00,0.0134
1296.00,0.0218
1283.00,0.0261
1270.00,0.0140
1257.00,0.0107
1244.00,0.0178
1231.00,0.0253
1218.00,0.0179
1205.00,0.0143
1192.00,0.0279
1179.00,0.0112
1166.00,0.0099
1153.00,0.0271
1140.00,0.0105
1127.00,0.0338
1114.00,0.0149
1101.00,0.0208
1088.00,0.0092
1075.00,0.0089
1062.00,0.0171
1049.00,0.0465
1036.00,0.0228
1023.00,0.0345
1010.00,0.0144
997.00,0.0176
984.00,0.0103
971.00,0.0094
958.00,0.0086
945.00,0.0073
932.00,0.0108
919.00,0.0110
906.00,0.0075
893.00,0.0108
880.00,0.0093
867.00,0.0265
854.00,0.0184
841.00,0.0168
828.00,0.0186
815.00,0.0366
802.00,0.0085
789.00,0.0072
776.00,0.0099
763.00,0.0086
750.00,0.0085
737.00,0.0171
724.00,0.0144
711.00,0.0143
698.00,0.0156
685.00,0.0157
672.00,0.0201
659.00,0.0192
646.00,0.0151
633.00,0.0142
620.00,0.0184
607.00,0.0178
594.00,0.0238
581.00,0.0218
568.00,0.0193
555.00,0.0221
542.00,0.0238
529.00,0.0243
516.00,0.0153
503.00,0.0160
490.00,0.0162
477.00,0.0130
464.00,0.0124
451.00,0.0132
438.00,0.0126
425.00,0.0119
412.00,0.0139
400.00,0.0114

File: 2025_08_06_1CBN_3PVP90_MP_Powder_Scan3.csv
Created as New Dataset,Sample 004 By YargerLab Date Wednesday, August 06 2025
cm-1,A
4000.00,0.0039
3987.00,0.0039
3974.00,0.0040
3961.00,0.0039
3948.00,0.0038
3935.00,0.0039
3922.00,0.0039
3909.00,0.0039
3896.00,0.0038
3883.00,0.0037
3870.00,0.0038
3857.00,0.0037
3844.00,0.0038
3831.00,0.0038
3818.00,0.0038
3805.00,0.0037
3792.00,0.0038
3779.00,0.0038
3766.00,0.0038
3753.00,0.0037
3740.00,0.0036
3727.00,0.0035
3714.00,0.0035
3701.00,0.0035
3688.00,0.0034
3675.00,0.0033
3662.00,0.0034
3649.00,0.0032
3636.00,0.0032
3623.00,0.0032
3610.00,0.0032
3597.00,0.0031
3584.00,0.0029
3571.00,0.0029
3558.00,0.0031
3545.00,0.0033
3532.00,0.0036
3519.00,0.0039
3506.00,0.0042
3493.00,0.0047
3480.00,0.0054
3467.00,0.0064
3454.00,0.0076
3441.00,0.0090
3428.00,0.0109
3415.00,0.0133
3402.00,0.0152
3389.00,0.0152
3376.00,0.0139
3363.00,0.0127
3350.00,0.0118
3337.00,0.0114
3324.00,0.0113
3311.00,0.0117
3298.00,0.0123
3285.00,0.0132
3272.00,0.0142
3259.00,0.0153
3246.00,0.0163
3233.00,0.0169
3220.00,0.0171
3207.00,0.0165
3194.00,0.0155
3181.00,0.0143
3168.00,0.0129
3155.00,0.0114
3142.00,0.0102
3129.00,0.0093
3116.00,0.0086
3103.00,0.0077
3090.00,0.0076
3077.00,0.0076
3064.00,0.0073
3051.00,0.0074
3038.00,0.0076
3025.00,0.0073
3012.00,0.0067
2999.00,0.0087
2986.00,0.0118
2973.00,0.0182
2960.00,0.0236
2947.00,0.0183
2934.00,0.0306
2921.00,0.0361
2908.00,0.0231
2895.00,0.0169
2882.00,0.0146
2869.00,0.0185
2856.00,0.0283
2843.00,0.0168
2830.00,0.0104
2817.00,0.0085
2804.00,0.0076
2791.00,0.0071
2778.00,0.0066
2765.00,0.0064
2752.00,0.0064
2739.00,0.0066
2726.00,0.0069
2713.00,0.0065
2700.00,0.0064
2687.00,0.0062
2674.00,0.0060
2661.00,0.0066
2648.00,0.0067
2635.00,0.0065
2622.00,0.0062
2609.00,0.0060
2596.00,0.0061
2583.00,0.0060
2570.00,0.0058
2557.00,0.0056
2544.00,0.0055
2531.00,0.0055
2518.00,0.0052
2505.00,0.0051
2492.00,0.0049
2479.00,0.0048
2466.00,0.0048
2453.00,0.0048
2440.00,0.0047
2427.00,0.0045
2414.00,0.0045
2401.00,0.0043
2388.00,0.0042
2375.00,0.0037
2362.00,0.0037
2349.00,0.0038
2336.00,0.0042
2323.00,0.0051
2310.00,0.0041
2297.00,0.0045
2284.00,0.0052
2271.00,0.0047
2258.00,0.0043
2245.00,0.0043
2232.00,0.0043
2219.00,0.0044
2206.00,0.0043
2193.00,0.0041
2180.00,0.0042
2167.00,0.0052
2154.00,0.0019
2141.00,0.0023
2128.00,0.0025
2115.00,0.0038
2102.00,0.0035
2089.00,0.0036
2076.00,0.0040
2063.00,0.0035
2050.00,0.0045
2037.00,0.0039
2024.00,0.0030
2011.00,0.0033
1998.00,0.0031
1985.00,0.0042
1972.00,0.0026
1959.00,0.0021
1946.00,0.0028
1933.00,0.0030
1920.00,0.0033
1907.00,0.0045
1894.00,0.0040
1881.00,0.0035
1868.00,0.0034
1855.00,0.0036
1842.00,0.0038
1829.00,0.0034
1816.00,0.0033
1803.00,0.0036
1790.00,0.0039
1777.00,0.0039
1764.00,0.0039
1751.00,0.0037
1738.00,0.0039
1725.00,0.0044
1712.00,0.0050
1699.00,0.0075
1686.00,0.0120
1673.00,0.0113
1660.00,0.0090
1647.00,0.0067
1634.00,0.0099
1621.00,0.0477
1608.00,0.0359
1595.00,0.0177
1582.00,0.0405
1569.00,0.0243
1556.00,0.0116
1543.00,0.0089
1530.00,0.0080
1517.00,0.0102
1504.00,0.0135
1491.00,0.0196
1478.00,0.0105
1465.00,0.0259
1452.00,0.0234
1439.00,0.0323
1426.00,0.0411
1413.00,0.0304
1400.00,0.0512
1387.00,0.0334
1374.00,0.0253
1361.00,0.0396
1348.00,0.0304
1335.00,0.0214
1322.00,0.0206
1309.00,0.0202
1296.00,0.0327
1283.00,0.0396
1270.00,0.0209
1257.00,0.0161
1244.00,0.0270
1231.00,0.0386
1218.00,0.0272
1205.00,0.0217
1192.00,0.0431
1179.00,0.0170
1166.00,0.0150
1153.00,0.0426
1140.00,0.0158
1127.00,0.0536
1114.00,0.0230
1101.00,0.0326
1088.00,0.0139
1075.00,0.0133
1062.00,0.0263
1049.00,0.0746
1036.00,0.0355
1023.00,0.0538
1010.00,0.0222
997.00,0.0274
984.00,0.0158
971.00,0.0145
958.00,0.0132
945.00,0.0111
932.00,0.0164
919.00,0.0168
906.00,0.0113
893.00,0.0161
880.00,0.0139
867.00,0.0409
854.00,0.0282
841.00,0.0256
828.00,0.0283
815.00,0.0573
802.00,0.0128
789.00,0.0107
776.00,0.0145
763.00,0.0124
750.00,0.0121
737.00,0.0253
724.00,0.0212
711.00,0.0208
698.00,0.0229
685.00,0.0232
672.00,0.0296
659.00,0.0281
646.00,0.0216
633.00,0.0201
620.00,0.0266
607.00,0.0259
594.00,0.0351
581.00,0.0321
568.00,0.0281
555.00,0.0326
542.00,0.0362
529.00,0.0371
516.00,0.0225
503.00,0.0236
490.00,0.0238
477.00,0.0193
464.00,0.0186
451.00,0.0187
438.00,0.0184
425.00,0.0167
412.00,0.0203
400.00,0.0148

File: 2025_08_06_1CBN_CBN_MP_Powder_Floraworks1.csv
Created as New Dataset,Sample 008 By YargerLab Date Wednesday, August 06 2025
cm-1,A
4000.00,0.0016
3987.00,0.0017
3974.00,0.0017
3961.00,0.0017
3948.00,0.0017
3935.00,0.0017
3922.00,0.0017
3909.00,0.0017
3896.00,0.0017
3883.00,0.0016
3870.00,0.0017
3857.00,0.0017
3844.00,0.0017
3831.00,0.0016
3818.00,0.0016
3805.00,0.0016
3792.00,0.0017
3779.00,0.0017
3766.00,0.0017
3753.00,0.0017
3740.00,0.0017
3727.00,0.0016
3714.00,0.0017
3701.00,0.0016
3688.00,0.0015
3675.00,0.0016
3662.00,0.0016
3649.00,0.0015
3636.00,0.0016
3623.00,0.0016
3610.00,0.0017
3597.00,0.0017
3584.00,0.0019
3571.00,0.0021
3558.00,0.0022
3545.00,0.0023
3532.00,0.0025
3519.00,0.0027
3506.00,0.0028
3493.00,0.0030
3480.00,0.0032
3467.00,0.0035
3454.00,0.0038
3441.00,0.0042
3428.00,0.0044
3415.00,0.0050
3402.00,0.0055
3389.00,0.0060
3376.00,0.0058
3363.00,0.0054
3350.00,0.0052
3337.00,0.0050
3324.00,0.0050
3311.00,0.0049
3298.00,0.0050
3285.00,0.0053
3272.00,0.0054
3259.00,0.0057
3246.00,0.0059
3233.00,0.0060
3220.00,0.0063
3207.00,0.0063
3194.00,0.0061
3181.00,0.0059
3168.00,0.0056
3155.00,0.0052
3142.00,0.0049
3129.00,0.0046
3116.00,0.0044
3103.00,0.0041
3090.00,0.0041
3077.00,0.0039
3064.00,0.0038
3051.00,0.0036
3038.00,0.0036
3025.00,0.0034
3012.00,0.0033
2999.00,0.0040
2986.00,0.0050
2973.00,0.0072
2960.00,0.0083
2947.00,0.0073
2934.00,0.0103
2921.00,0.0106
2908.00,0.0081
2895.00,0.0069
2882.00,0.0065
2869.00,0.0071
2856.00,0.0088
2843.00,0.0062
2830.00,0.0047
2817.00,0.0040
2804.00,0.0037
2791.00,0.0035
2778.00,0.0034
2765.00,0.0032
2752.00,0.0032
2739.00,0.0032
2726.00,0.0033
2713.00,0.0032
2700.00,0.0031
2687.00,0.0030
2674.00,0.0030
2661.00,0.0033
2648.00,0.0035
2635.00,0.0034
2622.00,0.0032
2609.00,0.0031
2596.00,0.0031
2583.00,0.0030
2570.00,0.0029
2557.00,0.0028
2544.00,0.0026
2531.00,0.0026
2518.00,0.0026
2505.00,0.0024
2492.00,0.0023
2479.00,0.0024
2466.00,0.0024
2453.00,0.0025
2440.00,0.0024
2427.00,0.0022
2414.00,0.0022
2401.00,0.0020
2388.00,0.0018
2375.00,0.0015
2362.00,0.0015
2349.00,0.0017
2336.00,0.0020
2323.00,0.0031
2310.00,0.0021
2297.00,0.0026
2284.00,0.0032
2271.00,0.0028
2258.00,0.0025
2245.00,0.0025
2232.00,0.0024
2219.00,0.0024
2206.00,0.0023
2193.00,0.0028
2180.00,0.0022
2167.00,0.0033
2154.00,-0.0000
2141.00,0.0009
2128.00,0.0010
2115.00,0.0021
2102.00,0.0021
2089.00,0.0021
2076.00,0.0025
2063.00,0.0021
2050.00,0.0030
2037.00,0.0026
2024.00,0.0014
2011.00,0.0015
1998.00,0.0013
1985.00,0.0025
1972.00,0.0014
1959.00,0.0007
1946.00,0.0013
1933.00,0.0013
1920.00,0.0017
1907.00,0.0019
1894.00,0.0018
1881.00,0.0019
1868.00,0.0019
1855.00,0.0019
1842.00,0.0019
1829.00,0.0019
1816.00,0.0017
1803.00,0.0020
1790.00,0.0020
1777.00,0.0021
1764.00,0.0022
1751.00,0.0023
1738.00,0.0024
1725.00,0.0027
1712.00,0.0032
1699.00,0.0055
1686.00,0.0120
1673.00,0.0172
1660.00,0.0213
1647.00,0.0206
1634.00,0.0141
1621.00,0.0194
1608.00,0.0148
1595.00,0.0086
1582.00,0.0132
1569.00,0.0089
1556.00,0.0056
1543.00,0.0048
1530.00,0.0044
1517.00,0.0053
1504.00,0.0065
1491.00,0.0094
1478.00,0.0057
1465.00,0.0136
1452.00,0.0123
1439.00,0.0172
1426.00,0.0205
1413.00,0.0145
1400.00,0.0169
1387.00,0.0124
1374.00,0.0123
1361.00,0.0145
1348.00,0.0112
1335.00,0.0094
1322.00,0.0104
1309.00,0.0107
1296.00,0.0175
1283.00,0.0230
1270.00,0.0173
1257.00,0.0109
1244.00,0.0126
1231.00,0.0151
1218.00,0.0135
1205.00,0.0108
1192.00,0.0148
1179.00,0.0090
1166.00,0.0093
1153.00,0.0148
1140.00,0.0082
1127.00,0.0170
1114.00,0.0104
1101.00,0.0129
1088.00,0.0077
1075.00,0.0073
1062.00,0.0116
1049.00,0.0208
1036.00,0.0129
1023.00,0.0169
1010.00,0.0104
997.00,0.0112
984.00,0.0082
971.00,0.0074
958.00,0.0091
945.00,0.0067
932.00,0.0085
919.00,0.0082
906.00,0.0070
893.00,0.0080
880.00,0.0073
867.00,0.0147
854.00,0.0126
841.00,0.0127
828.00,0.0125
815.00,0.0207
802.00,0.0092
789.00,0.0083
776.00,0.0093
763.00,0.0093
750.00,0.0100
737.00,0.0144
724.00,0.0132
711.00,0.0128
698.00,0.0135
685.00,0.0144
672.00,0.0166
659.00,0.0182
646.00,0.0173
633.00,0.0157
620.00,0.0171
607.00,0.0172
594.00,0.0214
581.00,0.0215
568.00,0.0207
555.00,0.0206
542.00,0.0221
529.00,0.0223
516.00,0.0177
503.00,0.0182
490.00,0.0184
477.00,0.0168
464.00,0.0161
451.00,0.0154
438.00,0.0149
425.00,0.0137
412.00,0.0175
400.00,0.0124

File: 2025_08_06_1CBN_CBN_MP_Powder_Floraworks3.csv
Created as New Dataset,Sample 010 By YargerLab Date Wednesday, August 06 2025
cm-1,A
4000.00,0.0023
3987.00,0.0023
3974.00,0.0023
3961.00,0.0023
3948.00,0.0023
3935.00,0.0024
3922.00,0.0024
3909.00,0.0023
3896.00,0.0023
3883.00,0.0023
3870.00,0.0023
3857.00,0.0023
3844.00,0.0023
3831.00,0.0022
3818.00,0.0022
3805.00,0.0023
3792.00,0.0023
3779.00,0.0023
3766.00,0.0023
3753.00,0.0023
3740.00,0.0023
3727.00,0.0023
3714.00,0.0022
3701.00,0.0023
3688.00,0.0022
3675.00,0.0023
3662.00,0.0022
3649.00,0.0023
3636.00,0.0023
3623.00,0.0025
3610.00,0.0026
3597.00,0.0027
3584.00,0.0030
3571.00,0.0033
3558.00,0.0035
3545.00,0.0038
3532.00,0.0041
3519.00,0.0045
3506.00,0.0047
3493.00,0.0051
3480.00,0.0054
3467.00,0.0059
3454.00,0.0063
3441.00,0.0068
3428.00,0.0074
3415.00,0.0082
3402.00,0.0089
3389.00,0.0093
3376.00,0.0090
3363.00,0.0087
3350.00,0.0085
3337.00,0.0084
3324.00,0.0083
3311.00,0.0085
3298.00,0.0087
3285.00,0.0091
3272.00,0.0093
3259.00,0.0096
3246.00,0.0099
3233.00,0.0100
3220.00,0.0102
3207.00,0.0100
3194.00,0.0097
3181.00,0.0093
3168.00,0.0089
3155.00,0.0083
3142.00,0.0079
3129.00,0.0075
3116.00,0.0072
3103.00,0.0068
3090.00,0.0067
3077.00,0.0065
3064.00,0.0063
3051.00,0.0061
3038.00,0.0060
3025.00,0.0058
3012.00,0.0057
2999.00,0.0069
2986.00,0.0094
2973.00,0.0130
2960.00,0.0156
2947.00,0.0138
2934.00,0.0181
2921.00,0.0194
2908.00,0.0144
2895.00,0.0121
2882.00,0.0113
2869.00,0.0127
2856.00,0.0151
2843.00,0.0101
2830.00,0.0073
2817.00,0.0061
2804.00,0.0056
2791.00,0.0052
2778.00,0.0049
2765.00,0.0048
2752.00,0.0047
2739.00,0.0048
2726.00,0.0048
2713.00,0.0047
2700.00,0.0046
2687.00,0.0044
2674.00,0.0043
2661.00,0.0047
2648.00,0.0048
2635.00,0.0046
2622.00,0.0044
2609.00,0.0043
2596.00,0.0042
2583.00,0.0042
2570.00,0.0041
2557.00,0.0038
2544.00,0.0037
2531.00,0.0037
2518.00,0.0035
2505.00,0.0033
2492.00,0.0032
2479.00,0.0032
2466.00,0.0032
2453.00,0.0033
2440.00,0.0032
2427.00,0.0031
2414.00,0.0030
2401.00,0.0028
2388.00,0.0027
2375.00,0.0027
2362.00,0.0028
2349.00,0.0030
2336.00,0.0032
2323.00,0.0041
2310.00,0.0033
2297.00,0.0036
2284.00,0.0041
2271.00,0.0036
2258.00,0.0032
2245.00,0.0033
2232.00,0.0032
2219.00,0.0031
2206.00,0.0034
2193.00,0.0035
2180.00,0.0030
2167.00,0.0039
2154.00,0.0007
2141.00,0.0016
2128.00,0.0017
2115.00,0.0028
2102.00,0.0027
2089.00,0.0027
2076.00,0.0031
2063.00,0.0030
2050.00,0.0036
2037.00,0.0031
2024.00,0.0023
2011.00,0.0019
1998.00,0.0018
1985.00,0.0033
1972.00,0.0018
1959.00,0.0012
1946.00,0.0019
1933.00,0.0021
1920.00,0.0025
1907.00,0.0026
1894.00,0.0027
1881.00,0.0027
1868.00,0.0025
1855.00,0.0027
1842.00,0.0026
1829.00,0.0026
1816.00,0.0024
1803.00,0.0027
1790.00,0.0028
1777.00,0.0029
1764.00,0.0031
1751.00,0.0032
1738.00,0.0034
1725.00,0.0040
1712.00,0.0051
1699.00,0.0098
1686.00,0.0235
1673.00,0.0357
1660.00,0.0480
1647.00,0.0437
1634.00,0.0267
1621.00,0.0356
1608.00,0.0264
1595.00,0.0144
1582.00,0.0234
1569.00,0.0141
1556.00,0.0088
1543.00,0.0073
1530.00,0.0071
1517.00,0.0089
1504.00,0.0113
1491.00,0.0166
1478.00,0.0097
1465.00,0.0247
1452.00,0.0221
1439.00,0.0320
1426.00,0.0394
1413.00,0.0271
1400.00,0.0307
1387.00,0.0206
1374.00,0.0213
1361.00,0.0249
1348.00,0.0177
1335.00,0.0156
1322.00,0.0183
1309.00,0.0182
1296.00,0.0317
1283.00,0.0439
1270.00,0.0328
1257.00,0.0189
1244.00,0.0212
1231.00,0.0268
1218.00,0.0236
1205.00,0.0176
1192.00,0.0259
1179.00,0.0147
1166.00,0.0158
1153.00,0.0258
1140.00,0.0135
1127.00,0.0289
1114.00,0.0160
1101.00,0.0205
1088.00,0.0120
1075.00,0.0120
1062.00,0.0226
1049.00,0.0337
1036.00,0.0197
1023.00,0.0255
1010.00,0.0152
997.00,0.0171
984.00,0.0121
971.00,0.0110
958.00,0.0140
945.00,0.0104
932.00,0.0133
919.00,0.0127
906.00,0.0105
893.00,0.0126
880.00,0.0118
867.00,0.0233
854.00,0.0201
841.00,0.0209
828.00,0.0212
815.00,0.0339
802.00,0.0142
789.00,0.0130
776.00,0.0145
763.00,0.0144
750.00,0.0165
737.00,0.0243
724.00,0.0208
711.00,0.0199
698.00,0.0210
685.00,0.0231
672.00,0.0263
659.00,0.0300
646.00,0.0296
633.00,0.0257
620.00,0.0275
607.00,0.0272
594.00,0.0329
581.00,0.0357
568.00,0.0338
555.00,0.0337
542.00,0.0341
529.00,0.0354
516.00,0.0282
503.00,0.0282
490.00,0.0286
477.00,0.0264
464.00,0.0256
451.00,0.0243
438.00,0.0244
425.00,0.0229
412.00,0.0254
400.00,0.0227