Folder: Data/FTIR/Olivia (part 7)

File: 2025_07_16_Polystyrene_Std_scan2.csv
Created as New Dataset,Sample 832 By YargerLab Date Wednesday, July 16 2025
cm-1,A
4000.00,0.0004
3987.00,0.0004
3974.00,0.0004
3961.00,0.0004
3948.00,0.0004
3935.00,0.0004
3922.00,0.0003
3909.00,0.0003
3896.00,0.0002
3883.00,0.0002
3870.00,0.0002
3857.00,0.0002
3844.00,0.0003
3831.00,0.0003
3818.00,0.0001
3805.00,0.0003
3792.00,0.0004
3779.00,0.0004
3766.00,0.0003
3753.00,0.0002
3740.00,0.0001
3727.00,0.0002
3714.00,0.0002
3701.00,0.0003
3688.00,0.0001
3675.00,0.0002
3662.00,0.0004
3649.00,0.0002
3636.00,0.0004
3623.00,0.0004
3610.00,0.0004
3597.00,0.0006
3584.00,0.0006
3571.00,0.0007
3558.00,0.0010
3545.00,0.0010
3532.00,0.0013
3519.00,0.0013
3506.00,0.0014
3493.00,0.0015
3480.00,0.0015
3467.00,0.0016
3454.00,0.0017
3441.00,0.0017
3428.00,0.0017
3415.00,0.0017
3402.00,0.0018
3389.00,0.0017
3376.00,0.0017
3363.00,0.0016
3350.00,0.0016
3337.00,0.0016
3324.00,0.0015
3311.00,0.0015
3298.00,0.0016
3285.00,0.0015
3272.00,0.0015
3259.00,0.0015
3246.00,0.0014
3233.00,0.0014
3220.00,0.0013
3207.00,0.0013
3194.00,0.0013
3181.00,0.0011
3168.00,0.0012
3155.00,0.0011
3142.00,0.0012
3129.00,0.0010
3116.00,0.0012
3103.00,0.0021
3090.00,0.0027
3077.00,0.0037
3064.00,0.0051
3051.00,0.0039
3038.00,0.0041
3025.00,0.0113
3012.00,0.0034
2999.00,0.0034
2986.00,0.0019
2973.00,0.0021
2960.00,0.0029
2947.00,0.0051
2934.00,0.0100
2921.00,0.0139
2908.00,0.0107
2895.00,0.0065
2882.00,0.0045
2869.00,0.0036
2856.00,0.0053
2843.00,0.0051
2830.00,0.0017
2817.00,0.0013
2804.00,0.0012
2791.00,0.0010
2778.00,0.0009
2765.00,0.0008
2752.00,0.0008
2739.00,0.0008
2726.00,0.0009
2713.00,0.0009
2700.00,0.0008
2687.00,0.0008
2674.00,0.0008
2661.00,0.0012
2648.00,0.0014
2635.00,0.0014
2622.00,0.0012
2609.00,0.0011
2596.00,0.0010
2583.00,0.0009
2570.00,0.0007
2557.00,0.0007
2544.00,0.0006
2531.00,0.0006
2518.00,0.0006
2505.00,0.0005
2492.00,0.0004
2479.00,0.0005
2466.00,0.0004
2453.00,0.0005
2440.00,0.0003
2427.00,0.0002
2414.00,0.0003
2401.00,0.0001
2388.00,0.0000
2375.00,0.0001
2362.00,0.0003
2349.00,0.0005
2336.00,0.0008
2323.00,0.0019
2310.00,0.0011
2297.00,0.0011
2284.00,0.0016
2271.00,0.0011
2258.00,0.0008
2245.00,0.0009
2232.00,0.0007
2219.00,0.0006
2206.00,0.0005
2193.00,0.0007
2180.00,0.0006
2167.00,0.0017
2154.00,-0.0019
2141.00,-0.0013
2128.00,-0.0010
2115.00,0.0003
2102.00,0.0002
2089.00,-0.0000
2076.00,0.0001
2063.00,0.0002
2050.00,0.0014
2037.00,0.0007
2024.00,-0.0006
2011.00,-0.0009
1998.00,-0.0003
1985.00,0.0007
1972.00,-0.0005
1959.00,-0.0004
1946.00,0.0007
1933.00,0.0002
1920.00,-0.0001
1907.00,-0.0001
1894.00,0.0004
1881.00,0.0008
1868.00,0.0011
1855.00,0.0003
1842.00,0.0001
1829.00,0.0002
1816.00,0.0006
1803.00,0.0015
1790.00,0.0009
1777.00,0.0006
1764.00,0.0008
1751.00,0.0015
1738.00,0.0020
1725.00,0.0016
1712.00,0.0013
1699.00,0.0013
1686.00,0.0021
1673.00,0.0031
1660.00,0.0032
1647.00,0.0043
1634.00,0.0053
1621.00,0.0039
1608.00,0.0062
1595.00,0.0074
1582.00,0.0059
1569.00,0.0020
1556.00,0.0019
1543.00,0.0024
1530.00,0.0017
1517.00,0.0018
1504.00,0.0033
1491.00,0.0303
1478.00,0.0042
1465.00,0.0052
1452.00,0.0329
1439.00,0.0140
1426.00,0.0042
1413.00,0.0032
1400.00,0.0033
1387.00,0.0052
1374.00,0.0078
1361.00,0.0075
1348.00,0.0066
1335.00,0.0059
1322.00,0.0067
1309.00,0.0068
1296.00,0.0068
1283.00,0.0050
1270.00,0.0038
1257.00,0.0037
1244.00,0.0041
1231.00,0.0040
1218.00,0.0042
1205.00,0.0053
1192.00,0.0062
1179.00,0.0079
1166.00,0.0051
1153.00,0.0082
1140.00,0.0039
1127.00,0.0036
1114.00,0.0048
1101.00,0.0049
1088.00,0.0060
1075.00,0.0094
1062.00,0.0093
1049.00,0.0064
1036.00,0.0088
1023.00,0.0146
1010.00,0.0080
997.00,0.0064
984.00,0.0074
971.00,0.0074
958.00,0.0069
945.00,0.0068
932.00,0.0051
919.00,0.0060
906.00,0.0139
893.00,0.0054
880.00,0.0039
867.00,0.0036
854.00,0.0041
841.00,0.0074
828.00,0.0035
815.00,0.0035
802.00,0.0042
789.00,0.0073
776.00,0.0173
763.00,0.0442
750.00,0.0587
737.00,0.0263
724.00,0.0078
711.00,0.0160
698.00,0.1478
685.00,0.0653
672.00,0.0297
659.00,0.0184
646.00,0.0120
633.00,0.0128
620.00,0.0152
607.00,0.0123
594.00,0.0133
581.00,0.0164
568.00,0.0265
555.00,0.0378
542.00,0.0593
529.00,0.0453
516.00,0.0236
503.00,0.0162
490.00,0.0134
477.00,0.0110
464.00,0.0114
451.00,0.0101
438.00,0.0100
425.00,0.0075
412.00,0.0101
400.00,0.0075

File: 2025_07_16_Polystyrene_Std_scan3.csv
Created as New Dataset,Sample 833 By YargerLab Date Wednesday, July 16 2025
cm-1,A
4000.00,0.0014
3987.00,0.0013
3974.00,0.0013
3961.00,0.0013
3948.00,0.0013
3935.00,0.0014
3922.00,0.0014
3909.00,0.0013
3896.00,0.0015
3883.00,0.0016
3870.00,0.0016
3857.00,0.0017
3844.00,0.0015
3831.00,0.0016
3818.00,0.0018
3805.00,0.0017
3792.00,0.0014
3779.00,0.0015
3766.00,0.0015
3753.00,0.0018
3740.00,0.0018
3727.00,0.0016
3714.00,0.0015
3701.00,0.0014
3688.00,0.0016
3675.00,0.0018
3662.00,0.0013
3649.00,0.0018
3636.00,0.0013
3623.00,0.0016
3610.00,0.0017
3597.00,0.0015
3584.00,0.0016
3571.00,0.0015
3558.00,0.0016
3545.00,0.0017
3532.00,0.0017
3519.00,0.0018
3506.00,0.0019
3493.00,0.0019
3480.00,0.0019
3467.00,0.0020
3454.00,0.0021
3441.00,0.0021
3428.00,0.0020
3415.00,0.0021
3402.00,0.0021
3389.00,0.0021
3376.00,0.0021
3363.00,0.0021
3350.00,0.0021
3337.00,0.0021
3324.00,0.0021
3311.00,0.0021
3298.00,0.0021
3285.00,0.0020
3272.00,0.0020
3259.00,0.0019
3246.00,0.0019
3233.00,0.0019
3220.00,0.0018
3207.00,0.0019
3194.00,0.0018
3181.00,0.0017
3168.00,0.0017
3155.00,0.0017
3142.00,0.0017
3129.00,0.0017
3116.00,0.0019
3103.00,0.0033
3090.00,0.0042
3077.00,0.0060
3064.00,0.0083
3051.00,0.0063
3038.00,0.0067
3025.00,0.0181
3012.00,0.0055
2999.00,0.0052
2986.00,0.0030
2973.00,0.0032
2960.00,0.0045
2947.00,0.0079
2934.00,0.0156
2921.00,0.0219
2908.00,0.0170
2895.00,0.0103
2882.00,0.0073
2869.00,0.0060
2856.00,0.0086
2843.00,0.0084
2830.00,0.0033
2817.00,0.0026
2804.00,0.0024
2791.00,0.0022
2778.00,0.0021
2765.00,0.0020
2752.00,0.0019
2739.00,0.0019
2726.00,0.0019
2713.00,0.0019
2700.00,0.0019
2687.00,0.0019
2674.00,0.0019
2661.00,0.0022
2648.00,0.0024
2635.00,0.0024
2622.00,0.0022
2609.00,0.0022
2596.00,0.0020
2583.00,0.0020
2570.00,0.0018
2557.00,0.0017
2544.00,0.0017
2531.00,0.0016
2518.00,0.0016
2505.00,0.0015
2492.00,0.0015
2479.00,0.0015
2466.00,0.0014
2453.00,0.0015
2440.00,0.0014
2427.00,0.0012
2414.00,0.0012
2401.00,0.0011
2388.00,0.0010
2375.00,0.0009
2362.00,0.0010
2349.00,0.0012
2336.00,0.0015
2323.00,0.0025
2310.00,0.0019
2297.00,0.0019
2284.00,0.0023
2271.00,0.0017
2258.00,0.0018
2245.00,0.0016
2232.00,0.0014
2219.00,0.0014
2206.00,0.0014
2193.00,0.0014
2180.00,0.0009
2167.00,0.0022
2154.00,-0.0008
2141.00,-0.0006
2128.00,-0.0003
2115.00,0.0008
2102.00,0.0010
2089.00,0.0010
2076.00,0.0012
2063.00,0.0008
2050.00,0.0017
2037.00,0.0010
2024.00,0.0006
2011.00,0.0004
1998.00,0.0006
1985.00,0.0018
1972.00,0.0002
1959.00,0.0008
1946.00,0.0025
1933.00,0.0017
1920.00,0.0009
1907.00,0.0007
1894.00,0.0013
1881.00,0.0023
1868.00,0.0026
1855.00,0.0014
1842.00,0.0010
1829.00,0.0014
1816.00,0.0019
1803.00,0.0032
1790.00,0.0021
1777.00,0.0018
1764.00,0.0020
1751.00,0.0032
1738.00,0.0036
1725.00,0.0030
1712.00,0.0026
1699.00,0.0027
1686.00,0.0035
1673.00,0.0042
1660.00,0.0041
1647.00,0.0033
1634.00,0.0029
1621.00,0.0032
1608.00,0.0078
1595.00,0.0102
1582.00,0.0083
1569.00,0.0030
1556.00,0.0029
1543.00,0.0039
1530.00,0.0028
1517.00,0.0027
1504.00,0.0048
1491.00,0.0435
1478.00,0.0063
1465.00,0.0065
1452.00,0.0475
1439.00,0.0186
1426.00,0.0064
1413.00,0.0047
1400.00,0.0045
1387.00,0.0072
1374.00,0.0110
1361.00,0.0103
1348.00,0.0092
1335.00,0.0084
1322.00,0.0089
1309.00,0.0091
1296.00,0.0077
1283.00,0.0071
1270.00,0.0057
1257.00,0.0051
1244.00,0.0053
1231.00,0.0052
1218.00,0.0054
1205.00,0.0066
1192.00,0.0081
1179.00,0.0104
1166.00,0.0068
1153.00,0.0110
1140.00,0.0052
1127.00,0.0050
1114.00,0.0068
1101.00,0.0071
1088.00,0.0083
1075.00,0.0130
1062.00,0.0132
1049.00,0.0093
1036.00,0.0125
1023.00,0.0203
1010.00,0.0115
997.00,0.0093
984.00,0.0104
971.00,0.0101
958.00,0.0096
945.00,0.0091
932.00,0.0069
919.00,0.0080
906.00,0.0181
893.00,0.0072
880.00,0.0054
867.00,0.0047
854.00,0.0051
841.00,0.0098
828.00,0.0048
815.00,0.0047
802.00,0.0054
789.00,0.0096
776.00,0.0229
763.00,0.0596
750.00,0.0769
737.00,0.0337
724.00,0.0100
711.00,0.0212
698.00,0.2088
685.00,0.0763
672.00,0.0355
659.00,0.0217
646.00,0.0140
633.00,0.0153
620.00,0.0184
607.00,0.0145
594.00,0.0160
581.00,0.0199
568.00,0.0328
555.00,0.0466
542.00,0.0728
529.00,0.0532
516.00,0.0276
503.00,0.0190
490.00,0.0154
477.00,0.0136
464.00,0.0114
451.00,0.0102
438.00,0.0112
425.00,0.0089
412.00,0.0095
400.00,0.0102

File: 2025_07_21_Polystyrene_Std_scan1.csv
Created as New Dataset,Sample 840 By YargerLab Date Friday, July 18 2025
cm-1,A
4000.00,0.0007
3987.00,0.0007
3974.00,0.0007
3961.00,0.0007
3948.00,0.0007
3935.00,0.0007
3922.00,0.0006
3909.00,0.0007
3896.00,0.0006
3883.00,0.0005
3870.00,0.0005
3857.00,0.0006
3844.00,0.0006
3831.00,0.0006
3818.00,0.0005
3805.00,0.0006
3792.00,0.0007
3779.00,0.0007
3766.00,0.0006
3753.00,0.0006
3740.00,0.0006
3727.00,0.0005
3714.00,0.0006
3701.00,0.0006
3688.00,0.0005
3675.00,0.0003
3662.00,0.0006
3649.00,0.0004
3636.00,0.0005
3623.00,0.0006
3610.00,0.0005
3597.00,0.0007
3584.00,0.0006
3571.00,0.0007
3558.00,0.0007
3545.00,0.0008
3532.00,0.0008
3519.00,0.0009
3506.00,0.0010
3493.00,0.0010
3480.00,0.0011
3467.00,0.0011
3454.00,0.0011
3441.00,0.0011
3428.00,0.0011
3415.00,0.0011
3402.00,0.0011
3389.00,0.0011
3376.00,0.0011
3363.00,0.0012
3350.00,0.0011
3337.00,0.0011
3324.00,0.0011
3311.00,0.0011
3298.00,0.0011
3285.00,0.0010
3272.00,0.0010
3259.00,0.0010
3246.00,0.0010
3233.00,0.0010
3220.00,0.0009
3207.00,0.0010
3194.00,0.0010
3181.00,0.0009
3168.00,0.0010
3155.00,0.0010
3142.00,0.0010
3129.00,0.0010
3116.00,0.0012
3103.00,0.0022
3090.00,0.0028
3077.00,0.0043
3064.00,0.0058
3051.00,0.0046
3038.00,0.0048
3025.00,0.0131
3012.00,0.0038
2999.00,0.0033
2986.00,0.0014
2973.00,0.0016
2960.00,0.0028
2947.00,0.0055
2934.00,0.0113
2921.00,0.0160
2908.00,0.0121
2895.00,0.0072
2882.00,0.0049
2869.00,0.0040
2856.00,0.0061
2843.00,0.0060
2830.00,0.0021
2817.00,0.0016
2804.00,0.0015
2791.00,0.0013
2778.00,0.0013
2765.00,0.0012
2752.00,0.0011
2739.00,0.0012
2726.00,0.0012
2713.00,0.0012
2700.00,0.0012
2687.00,0.0012
2674.00,0.0012
2661.00,0.0015
2648.00,0.0017
2635.00,0.0016
2622.00,0.0015
2609.00,0.0014
2596.00,0.0014
2583.00,0.0013
2570.00,0.0011
2557.00,0.0011
2544.00,0.0010
2531.00,0.0010
2518.00,0.0009
2505.00,0.0009
2492.00,0.0009
2479.00,0.0010
2466.00,0.0008
2453.00,0.0010
2440.00,0.0008
2427.00,0.0007
2414.00,0.0006
2401.00,0.0005
2388.00,0.0005
2375.00,0.0004
2362.00,0.0004
2349.00,0.0006
2336.00,0.0009
2323.00,0.0020
2310.00,0.0014
2297.00,0.0015
2284.00,0.0019
2271.00,0.0013
2258.00,0.0013
2245.00,0.0011
2232.00,0.0010
2219.00,0.0009
2206.00,0.0008
2193.00,0.0010
2180.00,0.0007
2167.00,0.0013
2154.00,-0.0013
2141.00,-0.0008
2128.00,-0.0004
2115.00,0.0007
2102.00,0.0006
2089.00,0.0004
2076.00,0.0008
2063.00,0.0005
2050.00,0.0012
2037.00,0.0004
2024.00,0.0001
2011.00,0.0004
1998.00,0.0003
1985.00,0.0010
1972.00,-0.0003
1959.00,-0.0001
1946.00,0.0016
1933.00,0.0008
1920.00,0.0004
1907.00,0.0003
1894.00,0.0008
1881.00,0.0015
1868.00,0.0018
1855.00,0.0009
1842.00,0.0006
1829.00,0.0008
1816.00,0.0013
1803.00,0.0023
1790.00,0.0015
1777.00,0.0014
1764.00,0.0017
1751.00,0.0027
1738.00,0.0029
1725.00,0.0025
1712.00,0.0022
1699.00,0.0021
1686.00,0.0024
1673.00,0.0028
1660.00,0.0028
1647.00,0.0023
1634.00,0.0021
1621.00,0.0024
1608.00,0.0058
1595.00,0.0078
1582.00,0.0063
1569.00,0.0021
1556.00,0.0021
1543.00,0.0030
1530.00,0.0022
1517.00,0.0020
1504.00,0.0036
1491.00,0.0338
1478.00,0.0048
1465.00,0.0049
1452.00,0.0363
1439.00,0.0143
1426.00,0.0047
1413.00,0.0036
1400.00,0.0034
1387.00,0.0054
1374.00,0.0085
1361.00,0.0081
1348.00,0.0072
1335.00,0.0066
1322.00,0.0071
1309.00,0.0072
1296.00,0.0061
1283.00,0.0056
1270.00,0.0045
1257.00,0.0040
1244.00,0.0043
1231.00,0.0043
1218.00,0.0045
1205.00,0.0056
1192.00,0.0068
1179.00,0.0086
1166.00,0.0054
1153.00,0.0087
1140.00,0.0041
1127.00,0.0042
1114.00,0.0055
1101.00,0.0056
1088.00,0.0067
1075.00,0.0103
1062.00,0.0102
1049.00,0.0072
1036.00,0.0097
1023.00,0.0161
1010.00,0.0091
997.00,0.0074
984.00,0.0084
971.00,0.0082
958.00,0.0077
945.00,0.0076
932.00,0.0060
919.00,0.0069
906.00,0.0152
893.00,0.0062
880.00,0.0046
867.00,0.0042
854.00,0.0045
841.00,0.0083
828.00,0.0041
815.00,0.0040
802.00,0.0045
789.00,0.0081
776.00,0.0193
763.00,0.0495
750.00,0.0639
737.00,0.0279
724.00,0.0082
711.00,0.0177
698.00,0.1721
685.00,0.0679
672.00,0.0308
659.00,0.0188
646.00,0.0118
633.00,0.0129
620.00,0.0155
607.00,0.0122
594.00,0.0135
581.00,0.0171
568.00,0.0281
555.00,0.0404
542.00,0.0628
529.00,0.0467
516.00,0.0238
503.00,0.0167
490.00,0.0132
477.00,0.0111
464.00,0.0104
451.00,0.0096
438.00,0.0092
425.00,0.0080
412.00,0.0091
400.00,0.0092

File: 2025_07_21_Polystyrene_Std_scan2.csv
Created as New Dataset,Sample 841 By YargerLab Date Monday, July 21 2025
cm-1,A
4000.00,0.0008
3987.00,0.0008
3974.00,0.0008
3961.00,0.0007
3948.00,0.0007
3935.00,0.0007
3922.00,0.0007
3909.00,0.0007
3896.00,0.0007
3883.00,0.0007
3870.00,0.0006
3857.00,0.0008
3844.00,0.0007
3831.00,0.0007
3818.00,0.0006
3805.00,0.0008
3792.00,0.0007
3779.00,0.0008
3766.00,0.0008
3753.00,0.0008
3740.00,0.0007
3727.00,0.0007
3714.00,0.0006
3701.00,0.0007
3688.00,0.0006
3675.00,0.0005
3662.00,0.0007
3649.00,0.0006
3636.00,0.0006
3623.00,0.0007
3610.00,0.0008
3597.00,0.0007
3584.00,0.0008
3571.00,0.0009
3558.00,0.0009
3545.00,0.0009
3532.00,0.0010
3519.00,0.0010
3506.00,0.0011
3493.00,0.0012
3480.00,0.0012
3467.00,0.0013
3454.00,0.0012
3441.00,0.0013
3428.00,0.0013
3415.00,0.0012
3402.00,0.0012
3389.00,0.0012
3376.00,0.0013
3363.00,0.0013
3350.00,0.0012
3337.00,0.0013
3324.00,0.0013
3311.00,0.0013
3298.00,0.0013
3285.00,0.0012
3272.00,0.0012
3259.00,0.0012
3246.00,0.0012
3233.00,0.0011
3220.00,0.0011
3207.00,0.0012
3194.00,0.0011
3181.00,0.0011
3168.00,0.0012
3155.00,0.0012
3142.00,0.0011
3129.00,0.0012
3116.00,0.0014
3103.00,0.0029
3090.00,0.0039
3077.00,0.0058
3064.00,0.0082
3051.00,0.0062
3038.00,0.0066
3025.00,0.0186
3012.00,0.0051
2999.00,0.0046
2986.00,0.0021
2973.00,0.0023
2960.00,0.0039
2947.00,0.0076
2934.00,0.0159
2921.00,0.0224
2908.00,0.0169
2895.00,0.0098
2882.00,0.0067
2869.00,0.0054
2856.00,0.0084
2843.00,0.0081
2830.00,0.0027
2817.00,0.0021
2804.00,0.0019
2791.00,0.0017
2778.00,0.0016
2765.00,0.0014
2752.00,0.0014
2739.00,0.0014
2726.00,0.0015
2713.00,0.0014
2700.00,0.0014
2687.00,0.0014
2674.00,0.0014
2661.00,0.0018
2648.00,0.0019
2635.00,0.0019
2622.00,0.0018
2609.00,0.0017
2596.00,0.0016
2583.00,0.0015
2570.00,0.0013
2557.00,0.0013
2544.00,0.0013
2531.00,0.0012
2518.00,0.0011
2505.00,0.0011
2492.00,0.0011
2479.00,0.0010
2466.00,0.0010
2453.00,0.0012
2440.00,0.0009
2427.00,0.0008
2414.00,0.0008
2401.00,0.0007
2388.00,0.0006
2375.00,0.0005
2362.00,0.0005
2349.00,0.0008
2336.00,0.0012
2323.00,0.0022
2310.00,0.0016
2297.00,0.0017
2284.00,0.0020
2271.00,0.0015
2258.00,0.0013
2245.00,0.0012
2232.00,0.0011
2219.00,0.0010
2206.00,0.0010
2193.00,0.0009
2180.00,0.0008
2167.00,0.0016
2154.00,-0.0016
2141.00,-0.0010
2128.00,-0.0005
2115.00,0.0006
2102.00,0.0008
2089.00,0.0005
2076.00,0.0008
2063.00,0.0007
2050.00,0.0012
2037.00,0.0006
2024.00,0.0002
2011.00,0.0003
1998.00,0.0004
1985.00,0.0014
1972.00,-0.0002
1959.00,0.0004
1946.00,0.0023
1933.00,0.0014
1920.00,0.0006
1907.00,0.0005
1894.00,0.0012
1881.00,0.0021
1868.00,0.0026
1855.00,0.0012
1842.00,0.0007
1829.00,0.0012
1816.00,0.0018
1803.00,0.0031
1790.00,0.0020
1777.00,0.0018
1764.00,0.0022
1751.00,0.0034
1738.00,0.0038
1725.00,0.0032
1712.00,0.0028
1699.00,0.0026
1686.00,0.0032
1673.00,0.0035
1660.00,0.0034
1647.00,0.0028
1634.00,0.0025
1621.00,0.0028
1608.00,0.0077
1595.00,0.0102
1582.00,0.0081
1569.00,0.0025
1556.00,0.0025
1543.00,0.0035
1530.00,0.0026
1517.00,0.0024
1504.00,0.0045
1491.00,0.0449
1478.00,0.0060
1465.00,0.0061
1452.00,0.0491
1439.00,0.0185
1426.00,0.0059
1413.00,0.0044
1400.00,0.0043
1387.00,0.0069
1374.00,0.0110
1361.00,0.0103
1348.00,0.0093
1335.00,0.0084
1322.00,0.0090
1309.00,0.0092
1296.00,0.0076
1283.00,0.0070
1270.00,0.0056
1257.00,0.0050
1244.00,0.0053
1231.00,0.0052
1218.00,0.0055
1205.00,0.0069
1192.00,0.0084
1179.00,0.0107
1166.00,0.0067
1153.00,0.0110
1140.00,0.0050
1127.00,0.0049
1114.00,0.0066
1101.00,0.0067
1088.00,0.0082
1075.00,0.0130
1062.00,0.0127
1049.00,0.0088
1036.00,0.0121
1023.00,0.0203
1010.00,0.0112
997.00,0.0091
984.00,0.0103
971.00,0.0100
958.00,0.0096
945.00,0.0094
932.00,0.0071
919.00,0.0084
906.00,0.0190
893.00,0.0073
880.00,0.0053
867.00,0.0047
854.00,0.0052
841.00,0.0099
828.00,0.0047
815.00,0.0046
802.00,0.0053
789.00,0.0098
776.00,0.0241
763.00,0.0627
750.00,0.0809
737.00,0.0345
724.00,0.0097
711.00,0.0219
698.00,0.2178
685.00,0.0815
672.00,0.0364
659.00,0.0217
646.00,0.0137
633.00,0.0152
620.00,0.0181
607.00,0.0142
594.00,0.0158
581.00,0.0202
568.00,0.0338
555.00,0.0489
542.00,0.0768
529.00,0.0558
516.00,0.0279
503.00,0.0188
490.00,0.0149
477.00,0.0129
464.00,0.0116
451.00,0.0107
438.00,0.0092
425.00,0.0104
412.00,0.0086
400.00,0.0086

File: 2025_07_21_Polystyrene_Std_scan3.csv
Created as New Dataset,Sample 842 By YargerLab Date Monday, July 21 2025
cm-1,A
4000.00,0.0008
3987.00,0.0008
3974.00,0.0008
3961.00,0.0008
3948.00,0.0008
3935.00,0.0008
3922.00,0.0007
3909.00,0.0007
3896.00,0.0007
3883.00,0.0007
3870.00,0.0007
3857.00,0.0008
3844.00,0.0008
3831.00,0.0008
3818.00,0.0007
3805.00,0.0009
3792.00,0.0008
3779.00,0.0008
3766.00,0.0008
3753.00,0.0008
3740.00,0.0008
3727.00,0.0007
3714.00,0.0007
3701.00,0.0007
3688.00,0.0007
3675.00,0.0007
3662.00,0.0006
3649.00,0.0007
3636.00,0.0007
3623.00,0.0008
3610.00,0.0007
3597.00,0.0007
3584.00,0.0008
3571.00,0.0009
3558.00,0.0009
3545.00,0.0010
3532.00,0.0011
3519.00,0.0011
3506.00,0.0012
3493.00,0.0013
3480.00,0.0013
3467.00,0.0014
3454.00,0.0014
3441.00,0.0014
3428.00,0.0014
3415.00,0.0014
3402.00,0.0014
3389.00,0.0014
3376.00,0.0014
3363.00,0.0014
3350.00,0.0014
3337.00,0.0014
3324.00,0.0014
3311.00,0.0014
3298.00,0.0014
3285.00,0.0013
3272.00,0.0013
3259.00,0.0013
3246.00,0.0013
3233.00,0.0013
3220.00,0.0013
3207.00,0.0013
3194.00,0.0013
3181.00,0.0013
3168.00,0.0014
3155.00,0.0014
3142.00,0.0013
3129.00,0.0014
3116.00,0.0017
3103.00,0.0034
3090.00,0.0045
3077.00,0.0067
3064.00,0.0094
3051.00,0.0071
3038.00,0.0077
3025.00,0.0215
3012.00,0.0059
2999.00,0.0054
2986.00,0.0025
2973.00,0.0028
2960.00,0.0046
2947.00,0.0089
2934.00,0.0183
2921.00,0.0257
2908.00,0.0195
2895.00,0.0114
2882.00,0.0079
2869.00,0.0063
2856.00,0.0096
2843.00,0.0093
2830.00,0.0032
2817.00,0.0024
2804.00,0.0022
2791.00,0.0020
2778.00,0.0018
2765.00,0.0017
2752.00,0.0016
2739.00,0.0016
2726.00,0.0017
2713.00,0.0016
2700.00,0.0016
2687.00,0.0017
2674.00,0.0016
2661.00,0.0020
2648.00,0.0021
2635.00,0.0021
2622.00,0.0019
2609.00,0.0019
2596.00,0.0018
2583.00,0.0017
2570.00,0.0015
2557.00,0.0014
2544.00,0.0014
2531.00,0.0013
2518.00,0.0012
2505.00,0.0012
2492.00,0.0012
2479.00,0.0012
2466.00,0.0011
2453.00,0.0013
2440.00,0.0010
2427.00,0.0009
2414.00,0.0009
2401.00,0.0007
2388.00,0.0008
2375.00,0.0008
2362.00,0.0009
2349.00,0.0014
2336.00,0.0016
2323.00,0.0025
2310.00,0.0019
2297.00,0.0018
2284.00,0.0021
2271.00,0.0017
2258.00,0.0015
2245.00,0.0013
2232.00,0.0012
2219.00,0.0010
2206.00,0.0008
2193.00,0.0010
2180.00,0.0010
2167.00,0.0017
2154.00,-0.0013
2141.00,-0.0008
2128.00,-0.0005
2115.00,0.0007
2102.00,0.0008
2089.00,0.0006
2076.00,0.0010
2063.00,0.0006
2050.00,0.0015
2037.00,0.0005
2024.00,0.0003
2011.00,0.0004
1998.00,0.0002
1985.00,0.0016
1972.00,-0.0000
1959.00,0.0009
1946.00,0.0026
1933.00,0.0016
1920.00,0.0007
1907.00,0.0007
1894.00,0.0013
1881.00,0.0025
1868.00,0.0029
1855.00,0.0014
1842.00,0.0009
1829.00,0.0013
1816.00,0.0020
1803.00,0.0035
1790.00,0.0023
1777.00,0.0021
1764.00,0.0025
1751.00,0.0039
1738.00,0.0044
1725.00,0.0037
1712.00,0.0033
1699.00,0.0030
1686.00,0.0033
1673.00,0.0038
1660.00,0.0038
1647.00,0.0032
1634.00,0.0031
1621.00,0.0035
1608.00,0.0091
1595.00,0.0119
1582.00,0.0094
1569.00,0.0030
1556.00,0.0029
1543.00,0.0041
1530.00,0.0030
1517.00,0.0028
1504.00,0.0052
1491.00,0.0513
1478.00,0.0068
1465.00,0.0070
1452.00,0.0564
1439.00,0.0214
1426.00,0.0069
1413.00,0.0052
1400.00,0.0050
1387.00,0.0080
1374.00,0.0126
1361.00,0.0119
1348.00,0.0107
1335.00,0.0098
1322.00,0.0104
1309.00,0.0106
1296.00,0.0087
1283.00,0.0081
1270.00,0.0064
1257.00,0.0058
1244.00,0.0062
1231.00,0.0061
1218.00,0.0064
1205.00,0.0080
1192.00,0.0097
1179.00,0.0122
1166.00,0.0077
1153.00,0.0125
1140.00,0.0058
1127.00,0.0056
1114.00,0.0075
1101.00,0.0077
1088.00,0.0093
1075.00,0.0148
1062.00,0.0145
1049.00,0.0101
1036.00,0.0138
1023.00,0.0231
1010.00,0.0127
997.00,0.0102
984.00,0.0117
971.00,0.0115
958.00,0.0109
945.00,0.0107
932.00,0.0082
919.00,0.0095
906.00,0.0217
893.00,0.0085
880.00,0.0061
867.00,0.0055
854.00,0.0062
841.00,0.0115
828.00,0.0056
815.00,0.0054
802.00,0.0060
789.00,0.0111
776.00,0.0275
763.00,0.0718
750.00,0.0929
737.00,0.0395
724.00,0.0112
711.00,0.0250
698.00,0.2578
685.00,0.0938
672.00,0.0420
659.00,0.0253
646.00,0.0159
633.00,0.0176
620.00,0.0212
607.00,0.0166
594.00,0.0182
581.00,0.0230
568.00,0.0386
555.00,0.0556
542.00,0.0877
529.00,0.0634
516.00,0.0319
503.00,0.0218
490.00,0.0170
477.00,0.0143
464.00,0.0137
451.00,0.0126
438.00,0.0113
425.00,0.0105
412.00,0.0102
400.00,0.0108

File: 2025_07_23_Polystyrene_Std_scan1.csv
Created as New Dataset,Sample 878 By YargerLab Date Monday, July 21 2025
cm-1,A
4000.00,0.0010
3987.00,0.0009
3974.00,0.0008
3961.00,0.0008
3948.00,0.0008
3935.00,0.0008
3922.00,0.0009
3909.00,0.0009
3896.00,0.0008
3883.00,0.0008
3870.00,0.0008
3857.00,0.0009
3844.00,0.0009
3831.00,0.0009
3818.00,0.0009
3805.00,0.0010
3792.00,0.0008
3779.00,0.0009
3766.00,0.0009
3753.00,0.0010
3740.00,0.0008
3727.00,0.0008
3714.00,0.0009
3701.00,0.0008
3688.00,0.0008
3675.00,0.0009
3662.00,0.0009
3649.00,0.0011
3636.00,0.0009
3623.00,0.0009
3610.00,0.0009
3597.00,0.0010
3584.00,0.0010
3571.00,0.0011
3558.00,0.0012
3545.00,0.0013
3532.00,0.0014
3519.00,0.0015
3506.00,0.0015
3493.00,0.0016
3480.00,0.0016
3467.00,0.0018
3454.00,0.0018
3441.00,0.0018
3428.00,0.0018
3415.00,0.0018
3402.00,0.0018
3389.00,0.0018
3376.00,0.0018
3363.00,0.0018
3350.00,0.0017
3337.00,0.0017
3324.00,0.0017
3311.00,0.0017
3298.00,0.0017
3285.00,0.0016
3272.00,0.0016
3259.00,0.0016
3246.00,0.0016
3233.00,0.0015
3220.00,0.0015
3207.00,0.0016
3194.00,0.0015
3181.00,0.0014
3168.00,0.0015
3155.00,0.0014
3142.00,0.0012
3129.00,0.0013
3116.00,0.0017
3103.00,0.0034
3090.00,0.0051
3077.00,0.0066
3064.00,0.0102
3051.00,0.0071
3038.00,0.0085
3025.00,0.0214
3012.00,0.0062
2999.00,0.0059
2986.00,0.0036
2973.00,0.0041
2960.00,0.0059
2947.00,0.0105
2934.00,0.0204
2921.00,0.0272
2908.00,0.0208
2895.00,0.0128
2882.00,0.0092
2869.00,0.0076
2856.00,0.0111
2843.00,0.0097
2830.00,0.0037
2817.00,0.0028
2804.00,0.0024
2791.00,0.0021
2778.00,0.0020
2765.00,0.0018
2752.00,0.0017
2739.00,0.0017
2726.00,0.0017
2713.00,0.0017
2700.00,0.0016
2687.00,0.0016
2674.00,0.0017
2661.00,0.0020
2648.00,0.0022
2635.00,0.0022
2622.00,0.0020
2609.00,0.0019
2596.00,0.0017
2583.00,0.0016
2570.00,0.0015
2557.00,0.0014
2544.00,0.0012
2531.00,0.0012
2518.00,0.0011
2505.00,0.0011
2492.00,0.0011
2479.00,0.0010
2466.00,0.0009
2453.00,0.0010
2440.00,0.0010
2427.00,0.0007
2414.00,0.0006
2401.00,0.0005
2388.00,0.0005
2375.00,0.0006
2362.00,0.0007
2349.00,0.0011
2336.00,0.0015
2323.00,0.0024
2310.00,0.0016
2297.00,0.0015
2284.00,0.0019
2271.00,0.0013
2258.00,0.0013
2245.00,0.0011
2232.00,0.0011
2219.00,0.0009
2206.00,0.0008
2193.00,0.0009
2180.00,0.0009
2167.00,0.0018
2154.00,-0.0019
2141.00,-0.0011
2128.00,-0.0011
2115.00,0.0005
2102.00,0.0005
2089.00,0.0004
2076.00,0.0005
2063.00,0.0001
2050.00,0.0011
2037.00,0.0003
2024.00,-0.0005
2011.00,0.0003
1998.00,-0.0001
1985.00,0.0011
1972.00,-0.0000
1959.00,0.0005
1946.00,0.0025
1933.00,0.0012
1920.00,0.0004
1907.00,0.0003
1894.00,0.0010
1881.00,0.0020
1868.00,0.0024
1855.00,0.0011
1842.00,0.0004
1829.00,0.0010
1816.00,0.0017
1803.00,0.0031
1790.00,0.0020
1777.00,0.0018
1764.00,0.0022
1751.00,0.0034
1738.00,0.0041
1725.00,0.0033
1712.00,0.0028
1699.00,0.0030
1686.00,0.0038
1673.00,0.0047
1660.00,0.0045
1647.00,0.0035
1634.00,0.0029
1621.00,0.0030
1608.00,0.0092
1595.00,0.0105
1582.00,0.0085
1569.00,0.0027
1556.00,0.0025
1543.00,0.0034
1530.00,0.0023
1517.00,0.0020
1504.00,0.0046
1491.00,0.0422
1478.00,0.0061
1465.00,0.0067
1452.00,0.0500
1439.00,0.0194
1426.00,0.0070
1413.00,0.0050
1400.00,0.0048
1387.00,0.0076
1374.00,0.0117
1361.00,0.0109
1348.00,0.0097
1335.00,0.0088
1322.00,0.0093
1309.00,0.0093
1296.00,0.0081
1283.00,0.0073
1270.00,0.0058
1257.00,0.0054
1244.00,0.0054
1231.00,0.0053
1218.00,0.0054
1205.00,0.0066
1192.00,0.0079
1179.00,0.0100
1166.00,0.0064
1153.00,0.0102
1140.00,0.0048
1127.00,0.0045
1114.00,0.0060
1101.00,0.0061
1088.00,0.0076
1075.00,0.0117
1062.00,0.0114
1049.00,0.0077
1036.00,0.0112
1023.00,0.0174
1010.00,0.0100
997.00,0.0078
984.00,0.0088
971.00,0.0087
958.00,0.0082
945.00,0.0080
932.00,0.0059
919.00,0.0070
906.00,0.0160
893.00,0.0064
880.00,0.0046
867.00,0.0041
854.00,0.0046
841.00,0.0087
828.00,0.0041
815.00,0.0041
802.00,0.0046
789.00,0.0085
776.00,0.0211
763.00,0.0531
750.00,0.0674
737.00,0.0305
724.00,0.0085
711.00,0.0197
698.00,0.1550
685.00,0.0619
672.00,0.0302
659.00,0.0189
646.00,0.0133
633.00,0.0142
620.00,0.0166
607.00,0.0133
594.00,0.0145
581.00,0.0178
568.00,0.0280
555.00,0.0396
542.00,0.0598
529.00,0.0433
516.00,0.0229
503.00,0.0157
490.00,0.0126
477.00,0.0117
464.00,0.0096
451.00,0.0095
438.00,0.0088
425.00,0.0088
412.00,0.0091
400.00,0.0093