Folder: Data/FTIR/Olivia (part 3)

File: 2025_06_06_Standard_post_Polystyrene_scan1.csv
Created as New Dataset,Sample 629 By YargerLab Date Friday, June 06 2025
cm-1,A
4000.00,0.0019
3987.00,0.0017
3974.00,0.0017
3961.00,0.0017
3948.00,0.0017
3935.00,0.0017
3922.00,0.0018
3909.00,0.0017
3896.00,0.0016
3883.00,0.0018
3870.00,0.0018
3857.00,0.0020
3844.00,0.0017
3831.00,0.0018
3818.00,0.0019
3805.00,0.0019
3792.00,0.0017
3779.00,0.0017
3766.00,0.0018
3753.00,0.0020
3740.00,0.0017
3727.00,0.0017
3714.00,0.0018
3701.00,0.0016
3688.00,0.0016
3675.00,0.0012
3662.00,0.0008
3649.00,0.0012
3636.00,0.0011
3623.00,0.0014
3610.00,0.0015
3597.00,0.0014
3584.00,0.0015
3571.00,0.0015
3558.00,0.0014
3545.00,0.0015
3532.00,0.0016
3519.00,0.0017
3506.00,0.0017
3493.00,0.0017
3480.00,0.0016
3467.00,0.0017
3454.00,0.0018
3441.00,0.0018
3428.00,0.0018
3415.00,0.0018
3402.00,0.0018
3389.00,0.0018
3376.00,0.0019
3363.00,0.0019
3350.00,0.0020
3337.00,0.0021
3324.00,0.0020
3311.00,0.0020
3298.00,0.0019
3285.00,0.0019
3272.00,0.0018
3259.00,0.0018
3246.00,0.0017
3233.00,0.0017
3220.00,0.0016
3207.00,0.0018
3194.00,0.0017
3181.00,0.0016
3168.00,0.0017
3155.00,0.0018
3142.00,0.0017
3129.00,0.0018
3116.00,0.0023
3103.00,0.0046
3090.00,0.0063
3077.00,0.0092
3064.00,0.0133
3051.00,0.0097
3038.00,0.0106
3025.00,0.0296
3012.00,0.0077
2999.00,0.0047
2986.00,-0.0010
2973.00,-0.0018
2960.00,0.0024
2947.00,0.0095
2934.00,0.0227
2921.00,0.0328
2908.00,0.0247
2895.00,0.0136
2882.00,0.0088
2869.00,0.0074
2856.00,0.0123
2843.00,0.0125
2830.00,0.0045
2817.00,0.0034
2804.00,0.0031
2791.00,0.0028
2778.00,0.0027
2765.00,0.0025
2752.00,0.0024
2739.00,0.0024
2726.00,0.0025
2713.00,0.0025
2700.00,0.0025
2687.00,0.0025
2674.00,0.0024
2661.00,0.0028
2648.00,0.0029
2635.00,0.0030
2622.00,0.0028
2609.00,0.0027
2596.00,0.0026
2583.00,0.0025
2570.00,0.0023
2557.00,0.0021
2544.00,0.0021
2531.00,0.0021
2518.00,0.0020
2505.00,0.0019
2492.00,0.0020
2479.00,0.0018
2466.00,0.0018
2453.00,0.0019
2440.00,0.0017
2427.00,0.0016
2414.00,0.0015
2401.00,0.0014
2388.00,0.0013
2375.00,0.0014
2362.00,0.0015
2349.00,0.0018
2336.00,0.0023
2323.00,0.0033
2310.00,0.0025
2297.00,0.0024
2284.00,0.0028
2271.00,0.0023
2258.00,0.0020
2245.00,0.0020
2232.00,0.0017
2219.00,0.0015
2206.00,0.0016
2193.00,0.0017
2180.00,0.0014
2167.00,0.0025
2154.00,-0.0010
2141.00,-0.0004
2128.00,-0.0002
2115.00,0.0012
2102.00,0.0011
2089.00,0.0010
2076.00,0.0012
2063.00,0.0007
2050.00,0.0017
2037.00,0.0011
2024.00,0.0005
2011.00,0.0003
1998.00,0.0005
1985.00,0.0019
1972.00,0.0006
1959.00,0.0018
1946.00,0.0043
1933.00,0.0026
1920.00,0.0014
1907.00,0.0011
1894.00,0.0021
1881.00,0.0036
1868.00,0.0041
1855.00,0.0021
1842.00,0.0014
1829.00,0.0019
1816.00,0.0030
1803.00,0.0048
1790.00,0.0030
1777.00,0.0024
1764.00,0.0026
1751.00,0.0043
1738.00,0.0046
1725.00,0.0039
1712.00,0.0039
1699.00,0.0044
1686.00,0.0045
1673.00,0.0043
1660.00,0.0039
1647.00,0.0032
1634.00,0.0030
1621.00,0.0038
1608.00,0.0114
1595.00,0.0147
1582.00,0.0116
1569.00,0.0033
1556.00,0.0031
1543.00,0.0049
1530.00,0.0052
1517.00,0.0035
1504.00,0.0071
1491.00,0.0655
1478.00,0.0083
1465.00,0.0074
1452.00,0.0718
1439.00,0.0264
1426.00,0.0080
1413.00,0.0051
1400.00,0.0038
1387.00,0.0071
1374.00,0.0130
1361.00,0.0133
1348.00,0.0125
1335.00,0.0112
1322.00,0.0122
1309.00,0.0132
1296.00,0.0103
1283.00,0.0094
1270.00,0.0066
1257.00,0.0052
1244.00,0.0059
1231.00,0.0071
1218.00,0.0079
1205.00,0.0091
1192.00,0.0109
1179.00,0.0132
1166.00,0.0064
1153.00,0.0123
1140.00,0.0045
1127.00,0.0048
1114.00,0.0077
1101.00,0.0081
1088.00,0.0089
1075.00,0.0154
1062.00,0.0156
1049.00,0.0106
1036.00,0.0157
1023.00,0.0277
1010.00,0.0145
997.00,0.0115
984.00,0.0130
971.00,0.0115
958.00,0.0103
945.00,0.0099
932.00,0.0078
919.00,0.0102
906.00,0.0248
893.00,0.0091
880.00,0.0065
867.00,0.0057
854.00,0.0063
841.00,0.0128
828.00,0.0055
815.00,0.0050
802.00,0.0061
789.00,0.0123
776.00,0.0316
763.00,0.0836
750.00,0.1082
737.00,0.0461
724.00,0.0125
711.00,0.0286
698.00,0.2990
685.00,0.1002
672.00,0.0451
659.00,0.0272
646.00,0.0173
633.00,0.0188
620.00,0.0229
607.00,0.0175
594.00,0.0192
581.00,0.0246
568.00,0.0418
555.00,0.0605
542.00,0.0959
529.00,0.0680
516.00,0.0343
503.00,0.0226
490.00,0.0170
477.00,0.0148
464.00,0.0135
451.00,0.0125
438.00,0.0119
425.00,0.0090
412.00,0.0089
400.00,0.0117

File: 2025_06_06_Standard_post_Polystyrene_scan2.csv
Created as New Dataset,Sample 630 By YargerLab Date Friday, June 06 2025
cm-1,A
4000.00,0.0020
3987.00,0.0018
3974.00,0.0019
3961.00,0.0018
3948.00,0.0019
3935.00,0.0019
3922.00,0.0019
3909.00,0.0018
3896.00,0.0018
3883.00,0.0019
3870.00,0.0019
3857.00,0.0019
3844.00,0.0019
3831.00,0.0019
3818.00,0.0020
3805.00,0.0020
3792.00,0.0019
3779.00,0.0018
3766.00,0.0020
3753.00,0.0019
3740.00,0.0020
3727.00,0.0018
3714.00,0.0019
3701.00,0.0018
3688.00,0.0018
3675.00,0.0017
3662.00,0.0015
3649.00,0.0018
3636.00,0.0016
3623.00,0.0018
3610.00,0.0017
3597.00,0.0018
3584.00,0.0018
3571.00,0.0018
3558.00,0.0019
3545.00,0.0020
3532.00,0.0021
3519.00,0.0022
3506.00,0.0022
3493.00,0.0024
3480.00,0.0024
3467.00,0.0025
3454.00,0.0025
3441.00,0.0026
3428.00,0.0026
3415.00,0.0025
3402.00,0.0026
3389.00,0.0027
3376.00,0.0028
3363.00,0.0029
3350.00,0.0030
3337.00,0.0030
3324.00,0.0029
3311.00,0.0029
3298.00,0.0028
3285.00,0.0026
3272.00,0.0026
3259.00,0.0025
3246.00,0.0025
3233.00,0.0025
3220.00,0.0024
3207.00,0.0025
3194.00,0.0024
3181.00,0.0023
3168.00,0.0024
3155.00,0.0024
3142.00,0.0023
3129.00,0.0024
3116.00,0.0030
3103.00,0.0057
3090.00,0.0078
3077.00,0.0108
3064.00,0.0160
3051.00,0.0115
3038.00,0.0128
3025.00,0.0352
3012.00,0.0096
2999.00,0.0082
2986.00,0.0031
2973.00,0.0031
2960.00,0.0066
2947.00,0.0142
2934.00,0.0303
2921.00,0.0420
2908.00,0.0310
2895.00,0.0179
2882.00,0.0121
2869.00,0.0100
2856.00,0.0159
2843.00,0.0148
2830.00,0.0055
2817.00,0.0042
2804.00,0.0039
2791.00,0.0035
2778.00,0.0034
2765.00,0.0031
2752.00,0.0030
2739.00,0.0030
2726.00,0.0030
2713.00,0.0030
2700.00,0.0029
2687.00,0.0030
2674.00,0.0029
2661.00,0.0032
2648.00,0.0035
2635.00,0.0035
2622.00,0.0033
2609.00,0.0032
2596.00,0.0030
2583.00,0.0029
2570.00,0.0026
2557.00,0.0026
2544.00,0.0025
2531.00,0.0025
2518.00,0.0024
2505.00,0.0024
2492.00,0.0024
2479.00,0.0022
2466.00,0.0021
2453.00,0.0022
2440.00,0.0020
2427.00,0.0019
2414.00,0.0019
2401.00,0.0016
2388.00,0.0016
2375.00,0.0017
2362.00,0.0019
2349.00,0.0020
2336.00,0.0026
2323.00,0.0035
2310.00,0.0027
2297.00,0.0027
2284.00,0.0030
2271.00,0.0024
2258.00,0.0023
2245.00,0.0022
2232.00,0.0022
2219.00,0.0018
2206.00,0.0018
2193.00,0.0019
2180.00,0.0014
2167.00,0.0026
2154.00,-0.0011
2141.00,-0.0005
2128.00,0.0001
2115.00,0.0015
2102.00,0.0013
2089.00,0.0014
2076.00,0.0015
2063.00,0.0010
2050.00,0.0021
2037.00,0.0013
2024.00,0.0006
2011.00,0.0005
1998.00,0.0010
1985.00,0.0022
1972.00,0.0008
1959.00,0.0023
1946.00,0.0048
1933.00,0.0031
1920.00,0.0018
1907.00,0.0016
1894.00,0.0026
1881.00,0.0042
1868.00,0.0048
1855.00,0.0025
1842.00,0.0016
1829.00,0.0023
1816.00,0.0037
1803.00,0.0057
1790.00,0.0036
1777.00,0.0032
1764.00,0.0038
1751.00,0.0060
1738.00,0.0067
1725.00,0.0057
1712.00,0.0066
1699.00,0.0075
1686.00,0.0069
1673.00,0.0067
1660.00,0.0059
1647.00,0.0048
1634.00,0.0045
1621.00,0.0056
1608.00,0.0146
1595.00,0.0179
1582.00,0.0141
1569.00,0.0042
1556.00,0.0041
1543.00,0.0060
1530.00,0.0069
1517.00,0.0043
1504.00,0.0092
1491.00,0.0789
1478.00,0.0109
1465.00,0.0103
1452.00,0.0883
1439.00,0.0323
1426.00,0.0104
1413.00,0.0073
1400.00,0.0066
1387.00,0.0114
1374.00,0.0180
1361.00,0.0178
1348.00,0.0161
1335.00,0.0143
1322.00,0.0156
1309.00,0.0170
1296.00,0.0131
1283.00,0.0125
1270.00,0.0093
1257.00,0.0079
1244.00,0.0090
1231.00,0.0097
1218.00,0.0119
1205.00,0.0124
1192.00,0.0145
1179.00,0.0173
1166.00,0.0101
1153.00,0.0172
1140.00,0.0080
1127.00,0.0082
1114.00,0.0118
1101.00,0.0120
1088.00,0.0128
1075.00,0.0203
1062.00,0.0202
1049.00,0.0138
1036.00,0.0195
1023.00,0.0330
1010.00,0.0175
997.00,0.0137
984.00,0.0156
971.00,0.0149
958.00,0.0138
945.00,0.0135
932.00,0.0101
919.00,0.0122
906.00,0.0293
893.00,0.0107
880.00,0.0076
867.00,0.0068
854.00,0.0076
841.00,0.0149
828.00,0.0069
815.00,0.0064
802.00,0.0077
789.00,0.0147
776.00,0.0375
763.00,0.0987
750.00,0.1268
737.00,0.0523
724.00,0.0143
711.00,0.0333
698.00,0.3523
685.00,0.1129
672.00,0.0506
659.00,0.0297
646.00,0.0190
633.00,0.0215
620.00,0.0259
607.00,0.0200
594.00,0.0220
581.00,0.0285
568.00,0.0486
555.00,0.0700
542.00,0.1106
529.00,0.0766
516.00,0.0377
503.00,0.0250
490.00,0.0184
477.00,0.0160
464.00,0.0137
451.00,0.0123
438.00,0.0120
425.00,0.0112
412.00,0.0101
400.00,0.0080

File: 2025_06_06_Standard_post_Polystyrene_scan3.csv
Created as New Dataset,Sample 631 By YargerLab Date Friday, June 06 2025
cm-1,A
4000.00,0.0018
3987.00,0.0018
3974.00,0.0017
3961.00,0.0016
3948.00,0.0017
3935.00,0.0018
3922.00,0.0017
3909.00,0.0017
3896.00,0.0017
3883.00,0.0018
3870.00,0.0017
3857.00,0.0018
3844.00,0.0018
3831.00,0.0017
3818.00,0.0017
3805.00,0.0018
3792.00,0.0017
3779.00,0.0017
3766.00,0.0018
3753.00,0.0018
3740.00,0.0017
3727.00,0.0016
3714.00,0.0017
3701.00,0.0016
3688.00,0.0016
3675.00,0.0015
3662.00,0.0012
3649.00,0.0015
3636.00,0.0014
3623.00,0.0016
3610.00,0.0016
3597.00,0.0016
3584.00,0.0016
3571.00,0.0016
3558.00,0.0016
3545.00,0.0017
3532.00,0.0018
3519.00,0.0019
3506.00,0.0019
3493.00,0.0020
3480.00,0.0020
3467.00,0.0021
3454.00,0.0021
3441.00,0.0022
3428.00,0.0021
3415.00,0.0021
3402.00,0.0021
3389.00,0.0021
3376.00,0.0021
3363.00,0.0021
3350.00,0.0021
3337.00,0.0021
3324.00,0.0021
3311.00,0.0021
3298.00,0.0021
3285.00,0.0021
3272.00,0.0021
3259.00,0.0020
3246.00,0.0020
3233.00,0.0020
3220.00,0.0020
3207.00,0.0021
3194.00,0.0020
3181.00,0.0020
3168.00,0.0021
3155.00,0.0020
3142.00,0.0020
3129.00,0.0021
3116.00,0.0026
3103.00,0.0049
3090.00,0.0067
3077.00,0.0095
3064.00,0.0138
3051.00,0.0100
3038.00,0.0110
3025.00,0.0307
3012.00,0.0083
2999.00,0.0068
2986.00,0.0021
2973.00,0.0018
2960.00,0.0048
2947.00,0.0114
2934.00,0.0253
2921.00,0.0355
2908.00,0.0265
2895.00,0.0151
2882.00,0.0102
2869.00,0.0083
2856.00,0.0133
2843.00,0.0128
2830.00,0.0047
2817.00,0.0037
2804.00,0.0035
2791.00,0.0031
2778.00,0.0030
2765.00,0.0028
2752.00,0.0027
2739.00,0.0027
2726.00,0.0028
2713.00,0.0027
2700.00,0.0027
2687.00,0.0028
2674.00,0.0027
2661.00,0.0030
2648.00,0.0032
2635.00,0.0033
2622.00,0.0030
2609.00,0.0029
2596.00,0.0028
2583.00,0.0028
2570.00,0.0025
2557.00,0.0025
2544.00,0.0024
2531.00,0.0023
2518.00,0.0023
2505.00,0.0022
2492.00,0.0022
2479.00,0.0021
2466.00,0.0020
2453.00,0.0022
2440.00,0.0019
2427.00,0.0018
2414.00,0.0018
2401.00,0.0016
2388.00,0.0016
2375.00,0.0017
2362.00,0.0019
2349.00,0.0012
2336.00,0.0023
2323.00,0.0033
2310.00,0.0027
2297.00,0.0027
2284.00,0.0029
2271.00,0.0025
2258.00,0.0024
2245.00,0.0022
2232.00,0.0022
2219.00,0.0018
2206.00,0.0016
2193.00,0.0021
2180.00,0.0014
2167.00,0.0026
2154.00,-0.0008
2141.00,-0.0003
2128.00,0.0003
2115.00,0.0014
2102.00,0.0013
2089.00,0.0014
2076.00,0.0017
2063.00,0.0011
2050.00,0.0021
2037.00,0.0015
2024.00,0.0004
2011.00,0.0008
1998.00,0.0010
1985.00,0.0023
1972.00,0.0011
1959.00,0.0022
1946.00,0.0046
1933.00,0.0029
1920.00,0.0017
1907.00,0.0015
1894.00,0.0026
1881.00,0.0039
1868.00,0.0046
1855.00,0.0024
1842.00,0.0017
1829.00,0.0023
1816.00,0.0036
1803.00,0.0054
1790.00,0.0036
1777.00,0.0031
1764.00,0.0036
1751.00,0.0054
1738.00,0.0057
1725.00,0.0048
1712.00,0.0049
1699.00,0.0052
1686.00,0.0048
1673.00,0.0050
1660.00,0.0045
1647.00,0.0037
1634.00,0.0036
1621.00,0.0044
1608.00,0.0127
1595.00,0.0161
1582.00,0.0127
1569.00,0.0039
1556.00,0.0037
1543.00,0.0054
1530.00,0.0049
1517.00,0.0039
1504.00,0.0076
1491.00,0.0713
1478.00,0.0093
1465.00,0.0088
1452.00,0.0802
1439.00,0.0289
1426.00,0.0090
1413.00,0.0065
1400.00,0.0058
1387.00,0.0100
1374.00,0.0161
1361.00,0.0158
1348.00,0.0142
1335.00,0.0129
1322.00,0.0138
1309.00,0.0146
1296.00,0.0115
1283.00,0.0107
1270.00,0.0080
1257.00,0.0069
1244.00,0.0076
1231.00,0.0079
1218.00,0.0091
1205.00,0.0105
1192.00,0.0127
1179.00,0.0156
1166.00,0.0090
1153.00,0.0154
1140.00,0.0068
1127.00,0.0067
1114.00,0.0097
1101.00,0.0100
1088.00,0.0115
1075.00,0.0186
1062.00,0.0186
1049.00,0.0126
1036.00,0.0178
1023.00,0.0303
1010.00,0.0163
997.00,0.0131
984.00,0.0148
971.00,0.0140
958.00,0.0130
945.00,0.0128
932.00,0.0097
919.00,0.0117
906.00,0.0279
893.00,0.0103
880.00,0.0074
867.00,0.0065
854.00,0.0074
841.00,0.0143
828.00,0.0065
815.00,0.0062
802.00,0.0073
789.00,0.0140
776.00,0.0355
763.00,0.0942
750.00,0.1215
737.00,0.0501
724.00,0.0138
711.00,0.0314
698.00,0.3475
685.00,0.1119
672.00,0.0499
659.00,0.0295
646.00,0.0188
633.00,0.0211
620.00,0.0253
607.00,0.0195
594.00,0.0215
581.00,0.0279
568.00,0.0475
555.00,0.0684
542.00,0.1085
529.00,0.0757
516.00,0.0371
503.00,0.0248
490.00,0.0190
477.00,0.0160
464.00,0.0142
451.00,0.0127
438.00,0.0125
425.00,0.0118
412.00,0.0116
400.00,0.0095

File: 2025_06_12_Polystyrene_Std_scan1.csv
Created as New Dataset,Sample 671 By YargerLab Date Wednesday, June 11 2025
cm-1,A
4000.00,0.0029
3987.00,0.0027
3974.00,0.0028
3961.00,0.0028
3948.00,0.0027
3935.00,0.0027
3922.00,0.0026
3909.00,0.0027
3896.00,0.0026
3883.00,0.0025
3870.00,0.0025
3857.00,0.0024
3844.00,0.0026
3831.00,0.0026
3818.00,0.0025
3805.00,0.0026
3792.00,0.0026
3779.00,0.0026
3766.00,0.0026
3753.00,0.0025
3740.00,0.0024
3727.00,0.0025
3714.00,0.0025
3701.00,0.0025
3688.00,0.0022
3675.00,0.0018
3662.00,0.0018
3649.00,0.0017
3636.00,0.0020
3623.00,0.0025
3610.00,0.0024
3597.00,0.0026
3584.00,0.0027
3571.00,0.0027
3558.00,0.0026
3545.00,0.0028
3532.00,0.0028
3519.00,0.0029
3506.00,0.0030
3493.00,0.0031
3480.00,0.0031
3467.00,0.0032
3454.00,0.0032
3441.00,0.0033
3428.00,0.0032
3415.00,0.0032
3402.00,0.0032
3389.00,0.0032
3376.00,0.0032
3363.00,0.0032
3350.00,0.0032
3337.00,0.0032
3324.00,0.0031
3311.00,0.0031
3298.00,0.0031
3285.00,0.0031
3272.00,0.0031
3259.00,0.0030
3246.00,0.0030
3233.00,0.0029
3220.00,0.0029
3207.00,0.0030
3194.00,0.0030
3181.00,0.0028
3168.00,0.0030
3155.00,0.0030
3142.00,0.0029
3129.00,0.0030
3116.00,0.0036
3103.00,0.0067
3090.00,0.0090
3077.00,0.0125
3064.00,0.0184
3051.00,0.0132
3038.00,0.0148
3025.00,0.0406
3012.00,0.0108
2999.00,0.0075
2986.00,0.0008
2973.00,0.0006
2960.00,0.0056
2947.00,0.0145
2934.00,0.0334
2921.00,0.0475
2908.00,0.0350
2895.00,0.0197
2882.00,0.0132
2869.00,0.0112
2856.00,0.0182
2843.00,0.0174
2830.00,0.0065
2817.00,0.0052
2804.00,0.0047
2791.00,0.0043
2778.00,0.0041
2765.00,0.0038
2752.00,0.0037
2739.00,0.0036
2726.00,0.0037
2713.00,0.0037
2700.00,0.0037
2687.00,0.0037
2674.00,0.0036
2661.00,0.0040
2648.00,0.0041
2635.00,0.0042
2622.00,0.0039
2609.00,0.0039
2596.00,0.0038
2583.00,0.0037
2570.00,0.0034
2557.00,0.0033
2544.00,0.0032
2531.00,0.0031
2518.00,0.0030
2505.00,0.0031
2492.00,0.0029
2479.00,0.0028
2466.00,0.0028
2453.00,0.0028
2440.00,0.0027
2427.00,0.0025
2414.00,0.0025
2401.00,0.0024
2388.00,0.0023
2375.00,0.0024
2362.00,0.0027
2349.00,0.0030
2336.00,0.0036
2323.00,0.0044
2310.00,0.0036
2297.00,0.0034
2284.00,0.0037
2271.00,0.0031
2258.00,0.0032
2245.00,0.0028
2232.00,0.0027
2219.00,0.0026
2206.00,0.0024
2193.00,0.0026
2180.00,0.0021
2167.00,0.0034
2154.00,-0.0003
2141.00,0.0003
2128.00,0.0006
2115.00,0.0020
2102.00,0.0020
2089.00,0.0018
2076.00,0.0021
2063.00,0.0017
2050.00,0.0025
2037.00,0.0016
2024.00,0.0012
2011.00,0.0011
1998.00,0.0016
1985.00,0.0028
1972.00,0.0016
1959.00,0.0032
1946.00,0.0060
1933.00,0.0040
1920.00,0.0022
1907.00,0.0020
1894.00,0.0033
1881.00,0.0051
1868.00,0.0058
1855.00,0.0031
1842.00,0.0022
1829.00,0.0029
1816.00,0.0044
1803.00,0.0068
1790.00,0.0043
1777.00,0.0036
1764.00,0.0041
1751.00,0.0068
1738.00,0.0073
1725.00,0.0058
1712.00,0.0050
1699.00,0.0046
1686.00,0.0048
1673.00,0.0054
1660.00,0.0050
1647.00,0.0042
1634.00,0.0040
1621.00,0.0049
1608.00,0.0154
1595.00,0.0196
1582.00,0.0156
1569.00,0.0049
1556.00,0.0048
1543.00,0.0067
1530.00,0.0050
1517.00,0.0048
1504.00,0.0088
1491.00,0.0860
1478.00,0.0111
1465.00,0.0109
1452.00,0.0986
1439.00,0.0348
1426.00,0.0110
1413.00,0.0079
1400.00,0.0064
1387.00,0.0110
1374.00,0.0190
1361.00,0.0183
1348.00,0.0166
1335.00,0.0150
1322.00,0.0162
1309.00,0.0166
1296.00,0.0134
1283.00,0.0120
1270.00,0.0090
1257.00,0.0078
1244.00,0.0083
1231.00,0.0084
1218.00,0.0092
1205.00,0.0117
1192.00,0.0143
1179.00,0.0175
1166.00,0.0096
1153.00,0.0169
1140.00,0.0064
1127.00,0.0066
1114.00,0.0099
1101.00,0.0102
1088.00,0.0121
1075.00,0.0205
1062.00,0.0203
1049.00,0.0138
1036.00,0.0203
1023.00,0.0350
1010.00,0.0185
997.00,0.0144
984.00,0.0164
971.00,0.0146
958.00,0.0135
945.00,0.0136
932.00,0.0102
919.00,0.0129
906.00,0.0317
893.00,0.0115
880.00,0.0083
867.00,0.0072
854.00,0.0081
841.00,0.0161
828.00,0.0071
815.00,0.0070
802.00,0.0081
789.00,0.0158
776.00,0.0404
763.00,0.1072
750.00,0.1382
737.00,0.0570
724.00,0.0157
711.00,0.0360
698.00,0.3935
685.00,0.1205
672.00,0.0541
659.00,0.0320
646.00,0.0206
633.00,0.0233
620.00,0.0279
607.00,0.0215
594.00,0.0236
581.00,0.0307
568.00,0.0525
555.00,0.0757
542.00,0.1191
529.00,0.0817
516.00,0.0406
503.00,0.0269
490.00,0.0198
477.00,0.0172
464.00,0.0152
451.00,0.0141
438.00,0.0132
425.00,0.0122
412.00,0.0139
400.00,0.0131

File: 2025_06_12_Polystyrene_Std_scan2.csv
Created as New Dataset,Sample 672 By YargerLab Date Thursday, June 12 2025
cm-1,A
4000.00,0.0027
3987.00,0.0025
3974.00,0.0026
3961.00,0.0026
3948.00,0.0025
3935.00,0.0025
3922.00,0.0026
3909.00,0.0025
3896.00,0.0026
3883.00,0.0027
3870.00,0.0027
3857.00,0.0027
3844.00,0.0026
3831.00,0.0027
3818.00,0.0029
3805.00,0.0028
3792.00,0.0025
3779.00,0.0026
3766.00,0.0026
3753.00,0.0028
3740.00,0.0028
3727.00,0.0027
3714.00,0.0026
3701.00,0.0025
3688.00,0.0025
3675.00,0.0022
3662.00,0.0017
3649.00,0.0022
3636.00,0.0020
3623.00,0.0026
3610.00,0.0027
3597.00,0.0028
3584.00,0.0029
3571.00,0.0028
3558.00,0.0027
3545.00,0.0028
3532.00,0.0028
3519.00,0.0028
3506.00,0.0030
3493.00,0.0030
3480.00,0.0031
3467.00,0.0032
3454.00,0.0032
3441.00,0.0033
3428.00,0.0032
3415.00,0.0033
3402.00,0.0032
3389.00,0.0033
3376.00,0.0033
3363.00,0.0032
3350.00,0.0032
3337.00,0.0032
3324.00,0.0032
3311.00,0.0031
3298.00,0.0031
3285.00,0.0030
3272.00,0.0030
3259.00,0.0030
3246.00,0.0029
3233.00,0.0029
3220.00,0.0028
3207.00,0.0029
3194.00,0.0028
3181.00,0.0027
3168.00,0.0029
3155.00,0.0028
3142.00,0.0027
3129.00,0.0027
3116.00,0.0034
3103.00,0.0063
3090.00,0.0085
3077.00,0.0118
3064.00,0.0174
3051.00,0.0125
3038.00,0.0140
3025.00,0.0380
3012.00,0.0101
2999.00,0.0071
2986.00,0.0010
2973.00,0.0017
2960.00,0.0056
2947.00,0.0135
2934.00,0.0312
2921.00,0.0441
2908.00,0.0327
2895.00,0.0185
2882.00,0.0125
2869.00,0.0105
2856.00,0.0167
2843.00,0.0162
2830.00,0.0061
2817.00,0.0049
2804.00,0.0045
2791.00,0.0040
2778.00,0.0039
2765.00,0.0037
2752.00,0.0035
2739.00,0.0034
2726.00,0.0035
2713.00,0.0035
2700.00,0.0035
2687.00,0.0035
2674.00,0.0034
2661.00,0.0038
2648.00,0.0040
2635.00,0.0040
2622.00,0.0038
2609.00,0.0037
2596.00,0.0035
2583.00,0.0035
2570.00,0.0032
2557.00,0.0031
2544.00,0.0031
2531.00,0.0030
2518.00,0.0030
2505.00,0.0029
2492.00,0.0028
2479.00,0.0027
2466.00,0.0026
2453.00,0.0027
2440.00,0.0026
2427.00,0.0024
2414.00,0.0023
2401.00,0.0022
2388.00,0.0022
2375.00,0.0023
2362.00,0.0026
2349.00,0.0028
2336.00,0.0033
2323.00,0.0040
2310.00,0.0034
2297.00,0.0032
2284.00,0.0035
2271.00,0.0030
2258.00,0.0030
2245.00,0.0027
2232.00,0.0025
2219.00,0.0024
2206.00,0.0023
2193.00,0.0026
2180.00,0.0020
2167.00,0.0030
2154.00,-0.0006
2141.00,0.0001
2128.00,0.0004
2115.00,0.0020
2102.00,0.0018
2089.00,0.0018
2076.00,0.0020
2063.00,0.0014
2050.00,0.0025
2037.00,0.0017
2024.00,0.0009
2011.00,0.0011
1998.00,0.0013
1985.00,0.0026
1972.00,0.0016
1959.00,0.0028
1946.00,0.0056
1933.00,0.0037
1920.00,0.0021
1907.00,0.0020
1894.00,0.0031
1881.00,0.0048
1868.00,0.0054
1855.00,0.0030
1842.00,0.0021
1829.00,0.0027
1816.00,0.0042
1803.00,0.0063
1790.00,0.0040
1777.00,0.0033
1764.00,0.0035
1751.00,0.0054
1738.00,0.0060
1725.00,0.0050
1712.00,0.0044
1699.00,0.0040
1686.00,0.0042
1673.00,0.0048
1660.00,0.0044
1647.00,0.0035
1634.00,0.0033
1621.00,0.0043
1608.00,0.0143
1595.00,0.0181
1582.00,0.0144
1569.00,0.0044
1556.00,0.0042
1543.00,0.0061
1530.00,0.0044
1517.00,0.0042
1504.00,0.0081
1491.00,0.0800
1478.00,0.0101
1465.00,0.0101
1452.00,0.0922
1439.00,0.0321
1426.00,0.0098
1413.00,0.0071
1400.00,0.0059
1387.00,0.0105
1374.00,0.0182
1361.00,0.0172
1348.00,0.0155
1335.00,0.0141
1322.00,0.0149
1309.00,0.0155
1296.00,0.0125
1283.00,0.0111
1270.00,0.0081
1257.00,0.0070
1244.00,0.0073
1231.00,0.0073
1218.00,0.0082
1205.00,0.0106
1192.00,0.0131
1179.00,0.0161
1166.00,0.0090
1153.00,0.0159
1140.00,0.0060
1127.00,0.0067
1114.00,0.0089
1101.00,0.0092
1088.00,0.0112
1075.00,0.0192
1062.00,0.0187
1049.00,0.0127
1036.00,0.0188
1023.00,0.0323
1010.00,0.0172
997.00,0.0134
984.00,0.0153
971.00,0.0137
958.00,0.0132
945.00,0.0138
932.00,0.0096
919.00,0.0121
906.00,0.0295
893.00,0.0106
880.00,0.0075
867.00,0.0066
854.00,0.0074
841.00,0.0149
828.00,0.0064
815.00,0.0067
802.00,0.0073
789.00,0.0146
776.00,0.0378
763.00,0.0999
750.00,0.1280
737.00,0.0528
724.00,0.0146
711.00,0.0338
698.00,0.3535
685.00,0.1112
672.00,0.0500
659.00,0.0296
646.00,0.0190
633.00,0.0216
620.00,0.0257
607.00,0.0196
594.00,0.0218
581.00,0.0285
568.00,0.0484
555.00,0.0702
542.00,0.1103
529.00,0.0758
516.00,0.0373
503.00,0.0246
490.00,0.0184
477.00,0.0157
464.00,0.0140
451.00,0.0125
438.00,0.0123
425.00,0.0120
412.00,0.0114
400.00,0.0106

File: 2025_06_12_Polystyrene_Std_scan3.csv
Created as New Dataset,Sample 673 By YargerLab Date Thursday, June 12 2025
cm-1,A
4000.00,0.0029
3987.00,0.0028
3974.00,0.0029
3961.00,0.0029
3948.00,0.0028
3935.00,0.0027
3922.00,0.0027
3909.00,0.0027
3896.00,0.0027
3883.00,0.0026
3870.00,0.0026
3857.00,0.0026
3844.00,0.0026
3831.00,0.0026
3818.00,0.0026
3805.00,0.0027
3792.00,0.0027
3779.00,0.0027
3766.00,0.0027
3753.00,0.0026
3740.00,0.0025
3727.00,0.0026
3714.00,0.0026
3701.00,0.0026
3688.00,0.0024
3675.00,0.0018
3662.00,0.0018
3649.00,0.0018
3636.00,0.0021
3623.00,0.0025
3610.00,0.0025
3597.00,0.0027
3584.00,0.0028
3571.00,0.0028
3558.00,0.0027
3545.00,0.0028
3532.00,0.0029
3519.00,0.0029
3506.00,0.0030
3493.00,0.0031
3480.00,0.0031
3467.00,0.0031
3454.00,0.0031
3441.00,0.0032
3428.00,0.0031
3415.00,0.0031
3402.00,0.0031
3389.00,0.0031
3376.00,0.0031
3363.00,0.0031
3350.00,0.0031
3337.00,0.0030
3324.00,0.0030
3311.00,0.0030
3298.00,0.0030
3285.00,0.0030
3272.00,0.0029
3259.00,0.0029
3246.00,0.0029
3233.00,0.0028
3220.00,0.0028
3207.00,0.0028
3194.00,0.0029
3181.00,0.0028
3168.00,0.0030
3155.00,0.0030
3142.00,0.0028
3129.00,0.0029
3116.00,0.0036
3103.00,0.0066
3090.00,0.0088
3077.00,0.0123
3064.00,0.0181
3051.00,0.0130
3038.00,0.0145
3025.00,0.0397
3012.00,0.0105
2999.00,0.0070
2986.00,0.0003
2973.00,0.0001
2960.00,0.0048
2947.00,0.0134
2934.00,0.0314
2921.00,0.0454
2908.00,0.0338
2895.00,0.0189
2882.00,0.0126
2869.00,0.0105
2856.00,0.0170
2843.00,0.0169
2830.00,0.0063
2817.00,0.0049
2804.00,0.0046
2791.00,0.0042
2778.00,0.0040
2765.00,0.0038
2752.00,0.0036
2739.00,0.0035
2726.00,0.0036
2713.00,0.0036
2700.00,0.0036
2687.00,0.0036
2674.00,0.0035
2661.00,0.0039
2648.00,0.0040
2635.00,0.0041
2622.00,0.0038
2609.00,0.0038
2596.00,0.0036
2583.00,0.0036
2570.00,0.0033
2557.00,0.0032
2544.00,0.0032
2531.00,0.0030
2518.00,0.0030
2505.00,0.0031
2492.00,0.0029
2479.00,0.0028
2466.00,0.0028
2453.00,0.0028
2440.00,0.0027
2427.00,0.0026
2414.00,0.0025
2401.00,0.0023
2388.00,0.0023
2375.00,0.0024
2362.00,0.0026
2349.00,0.0029
2336.00,0.0034
2323.00,0.0043
2310.00,0.0036
2297.00,0.0034
2284.00,0.0037
2271.00,0.0031
2258.00,0.0031
2245.00,0.0027
2232.00,0.0026
2219.00,0.0027
2206.00,0.0024
2193.00,0.0026
2180.00,0.0022
2167.00,0.0033
2154.00,-0.0000
2141.00,0.0004
2128.00,0.0008
2115.00,0.0021
2102.00,0.0020
2089.00,0.0018
2076.00,0.0022
2063.00,0.0015
2050.00,0.0023
2037.00,0.0017
2024.00,0.0011
2011.00,0.0014
1998.00,0.0017
1985.00,0.0027
1972.00,0.0016
1959.00,0.0032
1946.00,0.0059
1933.00,0.0040
1920.00,0.0023
1907.00,0.0021
1894.00,0.0032
1881.00,0.0050
1868.00,0.0058
1855.00,0.0032
1842.00,0.0022
1829.00,0.0029
1816.00,0.0043
1803.00,0.0066
1790.00,0.0041
1777.00,0.0034
1764.00,0.0035
1751.00,0.0055
1738.00,0.0058
1725.00,0.0048
1712.00,0.0041
1699.00,0.0041
1686.00,0.0044
1673.00,0.0050
1660.00,0.0047
1647.00,0.0039
1634.00,0.0035
1621.00,0.0045
1608.00,0.0148
1595.00,0.0190
1582.00,0.0151
1569.00,0.0047
1556.00,0.0045
1543.00,0.0066
1530.00,0.0048
1517.00,0.0047
1504.00,0.0085
1491.00,0.0842
1478.00,0.0108
1465.00,0.0105
1452.00,0.0961
1439.00,0.0337
1426.00,0.0104
1413.00,0.0075
1400.00,0.0060
1387.00,0.0103
1374.00,0.0181
1361.00,0.0175
1348.00,0.0159
1335.00,0.0145
1322.00,0.0154
1309.00,0.0158
1296.00,0.0126
1283.00,0.0112
1270.00,0.0081
1257.00,0.0069
1244.00,0.0073
1231.00,0.0073
1218.00,0.0084
1205.00,0.0110
1192.00,0.0135
1179.00,0.0167
1166.00,0.0088
1153.00,0.0160
1140.00,0.0058
1127.00,0.0062
1114.00,0.0092
1101.00,0.0094
1088.00,0.0115
1075.00,0.0199
1062.00,0.0199
1049.00,0.0135
1036.00,0.0200
1023.00,0.0344
1010.00,0.0183
997.00,0.0143
984.00,0.0162
971.00,0.0143
958.00,0.0132
945.00,0.0135
932.00,0.0099
919.00,0.0127
906.00,0.0312
893.00,0.0113
880.00,0.0081
867.00,0.0070
854.00,0.0079
841.00,0.0157
828.00,0.0069
815.00,0.0068
802.00,0.0078
789.00,0.0154
776.00,0.0395
763.00,0.1050
750.00,0.1357
737.00,0.0558
724.00,0.0155
711.00,0.0352
698.00,0.3850
685.00,0.1187
672.00,0.0531
659.00,0.0312
646.00,0.0202
633.00,0.0227
620.00,0.0274
607.00,0.0208
594.00,0.0229
581.00,0.0300
568.00,0.0512
555.00,0.0743
542.00,0.1173
529.00,0.0808
516.00,0.0400
503.00,0.0260
490.00,0.0197
477.00,0.0169
464.00,0.0149
451.00,0.0135
438.00,0.0135
425.00,0.0120
412.00,0.0131
400.00,0.0113