Folder: Data/FTIR/Olivia

Note: FTIR/README
YargerLab FT-IR Data Repo

File: 2025_06_05_CBD_Powder_scan1.csv
Created as New Dataset,Sample 582 By YargerLab Date Thursday, June 05 2025
cm-1,A
4000.00,0.0085
3987.00,0.0084
3974.00,0.0085
3961.00,0.0086
3948.00,0.0086
3935.00,0.0086
3922.00,0.0087
3909.00,0.0085
3896.00,0.0083
3883.00,0.0081
3870.00,0.0081
3857.00,0.0080
3844.00,0.0080
3831.00,0.0080
3818.00,0.0078
3805.00,0.0079
3792.00,0.0079
3779.00,0.0079
3766.00,0.0078
3753.00,0.0077
3740.00,0.0074
3727.00,0.0075
3714.00,0.0073
3701.00,0.0074
3688.00,0.0073
3675.00,0.0070
3662.00,0.0070
3649.00,0.0067
3636.00,0.0069
3623.00,0.0071
3610.00,0.0073
3597.00,0.0074
3584.00,0.0078
3571.00,0.0083
3558.00,0.0095
3545.00,0.0126
3532.00,0.0251
3519.00,0.0562
3506.00,0.0309
3493.00,0.0268
3480.00,0.0306
3467.00,0.0385
3454.00,0.0487
3441.00,0.0584
3428.00,0.0673
3415.00,0.0810
3402.00,0.0805
3389.00,0.0506
3376.00,0.0349
3363.00,0.0264
3350.00,0.0212
3337.00,0.0178
3324.00,0.0156
3311.00,0.0140
3298.00,0.0126
3285.00,0.0117
3272.00,0.0108
3259.00,0.0107
3246.00,0.0103
3233.00,0.0099
3220.00,0.0097
3207.00,0.0096
3194.00,0.0094
3181.00,0.0094
3168.00,0.0098
3155.00,0.0095
3142.00,0.0093
3129.00,0.0093
3116.00,0.0093
3103.00,0.0093
3090.00,0.0098
3077.00,0.0178
3064.00,0.0114
3051.00,0.0105
3038.00,0.0122
3025.00,0.0120
3012.00,0.0114
2999.00,0.0121
2986.00,0.0153
2973.00,0.0314
2960.00,0.0480
2947.00,0.0410
2934.00,0.0720
2921.00,0.0937
2908.00,0.0698
2895.00,0.0464
2882.00,0.0387
2869.00,0.0437
2856.00,0.0710
2843.00,0.0303
2830.00,0.0389
2817.00,0.0179
2804.00,0.0143
2791.00,0.0125
2778.00,0.0115
2765.00,0.0109
2752.00,0.0106
2739.00,0.0111
2726.00,0.0123
2713.00,0.0105
2700.00,0.0100
2687.00,0.0101
2674.00,0.0106
2661.00,0.0108
2648.00,0.0106
2635.00,0.0102
2622.00,0.0101
2609.00,0.0100
2596.00,0.0098
2583.00,0.0098
2570.00,0.0097
2557.00,0.0096
2544.00,0.0094
2531.00,0.0093
2518.00,0.0094
2505.00,0.0093
2492.00,0.0093
2479.00,0.0094
2466.00,0.0094
2453.00,0.0097
2440.00,0.0090
2427.00,0.0086
2414.00,0.0082
2401.00,0.0080
2388.00,0.0080
2375.00,0.0075
2362.00,0.0074
2349.00,0.0072
2336.00,0.0079
2323.00,0.0089
2310.00,0.0081
2297.00,0.0084
2284.00,0.0087
2271.00,0.0080
2258.00,0.0081
2245.00,0.0077
2232.00,0.0079
2219.00,0.0076
2206.00,0.0073
2193.00,0.0073
2180.00,0.0070
2167.00,0.0082
2154.00,0.0046
2141.00,0.0055
2128.00,0.0057
2115.00,0.0068
2102.00,0.0065
2089.00,0.0066
2076.00,0.0066
2063.00,0.0060
2050.00,0.0070
2037.00,0.0055
2024.00,0.0052
2011.00,0.0046
1998.00,0.0049
1985.00,0.0068
1972.00,0.0048
1959.00,0.0048
1946.00,0.0052
1933.00,0.0053
1920.00,0.0058
1907.00,0.0061
1894.00,0.0063
1881.00,0.0063
1868.00,0.0063
1855.00,0.0063
1842.00,0.0064
1829.00,0.0065
1816.00,0.0065
1803.00,0.0078
1790.00,0.0072
1777.00,0.0076
1764.00,0.0074
1751.00,0.0070
1738.00,0.0071
1725.00,0.0074
1712.00,0.0082
1699.00,0.0090
1686.00,0.0088
1673.00,0.0094
1660.00,0.0130
1647.00,0.0322
1634.00,0.0639
1621.00,0.0939
1608.00,0.0276
1595.00,0.0310
1582.00,0.1167
1569.00,0.0385
1556.00,0.0175
1543.00,0.0135
1530.00,0.0136
1517.00,0.0282
1504.00,0.0202
1491.00,0.0137
1478.00,0.0139
1465.00,0.0417
1452.00,0.0759
1439.00,0.1352
1426.00,0.0548
1413.00,0.0200
1400.00,0.0157
1387.00,0.0158
1374.00,0.0594
1361.00,0.0276
1348.00,0.0283
1335.00,0.0283
1322.00,0.0392
1309.00,0.0588
1296.00,0.0563
1283.00,0.0543
1270.00,0.0389
1257.00,0.0191
1244.00,0.0327
1231.00,0.0642
1218.00,0.1491
1205.00,0.0962
1192.00,0.0397
1179.00,0.0526
1166.00,0.0335
1153.00,0.0487
1140.00,0.0216
1127.00,0.0171
1114.00,0.0166
1101.00,0.0297
1088.00,0.0191
1075.00,0.0257
1062.00,0.0219
1049.00,0.0706
1036.00,0.0606
1023.00,0.0786
1010.00,0.0596
997.00,0.0521
984.00,0.0429
971.00,0.0295
958.00,0.0401
945.00,0.0193
932.00,0.0199
919.00,0.0234
906.00,0.0354
893.00,0.0927
880.00,0.0963
867.00,0.0544
854.00,0.0746
841.00,0.0598
828.00,0.0769
815.00,0.0326
802.00,0.0575
789.00,0.0283
776.00,0.0244
763.00,0.0191
750.00,0.0317
737.00,0.0200
724.00,0.0228
711.00,0.0178
698.00,0.0149
685.00,0.0154
672.00,0.0234
659.00,0.0325
646.00,0.0325
633.00,0.0260
620.00,0.0292
607.00,0.0353
594.00,0.0442
581.00,0.0503
568.00,0.0461
555.00,0.0486
542.00,0.0652
529.00,0.0758
516.00,0.0681
503.00,0.0863
490.00,0.1090
477.00,0.0922
464.00,0.1033
451.00,0.0974
438.00,0.0799
425.00,0.1047
412.00,0.1018
400.00,0.1250

File: 2025_06_05_CBD_Powder_scan2.csv
Created as New Dataset,Sample 583 By YargerLab Date Thursday, June 05 2025
cm-1,A
4000.00,0.0081
3987.00,0.0081
3974.00,0.0081
3961.00,0.0083
3948.00,0.0082
3935.00,0.0082
3922.00,0.0083
3909.00,0.0081
3896.00,0.0080
3883.00,0.0079
3870.00,0.0078
3857.00,0.0078
3844.00,0.0078
3831.00,0.0077
3818.00,0.0076
3805.00,0.0077
3792.00,0.0076
3779.00,0.0076
3766.00,0.0075
3753.00,0.0075
3740.00,0.0073
3727.00,0.0071
3714.00,0.0071
3701.00,0.0070
3688.00,0.0069
3675.00,0.0066
3662.00,0.0066
3649.00,0.0065
3636.00,0.0066
3623.00,0.0068
3610.00,0.0069
3597.00,0.0070
3584.00,0.0074
3571.00,0.0079
3558.00,0.0091
3545.00,0.0123
3532.00,0.0249
3519.00,0.0570
3506.00,0.0310
3493.00,0.0267
3480.00,0.0306
3467.00,0.0386
3454.00,0.0491
3441.00,0.0591
3428.00,0.0682
3415.00,0.0821
3402.00,0.0825
3389.00,0.0516
3376.00,0.0352
3363.00,0.0264
3350.00,0.0210
3337.00,0.0175
3324.00,0.0152
3311.00,0.0136
3298.00,0.0123
3285.00,0.0113
3272.00,0.0105
3259.00,0.0103
3246.00,0.0099
3233.00,0.0095
3220.00,0.0093
3207.00,0.0091
3194.00,0.0090
3181.00,0.0091
3168.00,0.0093
3155.00,0.0091
3142.00,0.0090
3129.00,0.0089
3116.00,0.0089
3103.00,0.0089
3090.00,0.0094
3077.00,0.0177
3064.00,0.0111
3051.00,0.0101
3038.00,0.0119
3025.00,0.0116
3012.00,0.0111
2999.00,0.0118
2986.00,0.0149
2973.00,0.0315
2960.00,0.0483
2947.00,0.0413
2934.00,0.0728
2921.00,0.0951
2908.00,0.0708
2895.00,0.0468
2882.00,0.0390
2869.00,0.0441
2856.00,0.0721
2843.00,0.0303
2830.00,0.0393
2817.00,0.0177
2804.00,0.0139
2791.00,0.0122
2778.00,0.0111
2765.00,0.0105
2752.00,0.0102
2739.00,0.0107
2726.00,0.0119
2713.00,0.0101
2700.00,0.0096
2687.00,0.0096
2674.00,0.0101
2661.00,0.0104
2648.00,0.0101
2635.00,0.0098
2622.00,0.0098
2609.00,0.0096
2596.00,0.0094
2583.00,0.0093
2570.00,0.0093
2557.00,0.0092
2544.00,0.0090
2531.00,0.0089
2518.00,0.0089
2505.00,0.0088
2492.00,0.0089
2479.00,0.0090
2466.00,0.0089
2453.00,0.0093
2440.00,0.0086
2427.00,0.0080
2414.00,0.0078
2401.00,0.0076
2388.00,0.0075
2375.00,0.0069
2362.00,0.0068
2349.00,0.0068
2336.00,0.0071
2323.00,0.0080
2310.00,0.0071
2297.00,0.0075
2284.00,0.0082
2271.00,0.0076
2258.00,0.0075
2245.00,0.0073
2232.00,0.0075
2219.00,0.0071
2206.00,0.0070
2193.00,0.0070
2180.00,0.0067
2167.00,0.0079
2154.00,0.0042
2141.00,0.0052
2128.00,0.0052
2115.00,0.0064
2102.00,0.0061
2089.00,0.0060
2076.00,0.0063
2063.00,0.0056
2050.00,0.0066
2037.00,0.0049
2024.00,0.0047
2011.00,0.0049
1998.00,0.0047
1985.00,0.0061
1972.00,0.0043
1959.00,0.0043
1946.00,0.0047
1933.00,0.0049
1920.00,0.0053
1907.00,0.0056
1894.00,0.0058
1881.00,0.0058
1868.00,0.0059
1855.00,0.0058
1842.00,0.0059
1829.00,0.0062
1816.00,0.0061
1803.00,0.0074
1790.00,0.0068
1777.00,0.0072
1764.00,0.0071
1751.00,0.0066
1738.00,0.0067
1725.00,0.0069
1712.00,0.0077
1699.00,0.0086
1686.00,0.0085
1673.00,0.0092
1660.00,0.0127
1647.00,0.0324
1634.00,0.0646
1621.00,0.0954
1608.00,0.0276
1595.00,0.0311
1582.00,0.1182
1569.00,0.0385
1556.00,0.0172
1543.00,0.0133
1530.00,0.0134
1517.00,0.0284
1504.00,0.0200
1491.00,0.0135
1478.00,0.0137
1465.00,0.0420
1452.00,0.0768
1439.00,0.1370
1426.00,0.0553
1413.00,0.0196
1400.00,0.0154
1387.00,0.0154
1374.00,0.0600
1361.00,0.0275
1348.00,0.0282
1335.00,0.0280
1322.00,0.0392
1309.00,0.0594
1296.00,0.0568
1283.00,0.0548
1270.00,0.0388
1257.00,0.0186
1244.00,0.0325
1231.00,0.0646
1218.00,0.1505
1205.00,0.0970
1192.00,0.0396
1179.00,0.0527
1166.00,0.0331
1153.00,0.0488
1140.00,0.0211
1127.00,0.0166
1114.00,0.0160
1101.00,0.0293
1088.00,0.0187
1075.00,0.0253
1062.00,0.0216
1049.00,0.0709
1036.00,0.0611
1023.00,0.0791
1010.00,0.0597
997.00,0.0521
984.00,0.0427
971.00,0.0292
958.00,0.0399
945.00,0.0187
932.00,0.0194
919.00,0.0230
906.00,0.0353
893.00,0.0931
880.00,0.0978
867.00,0.0546
854.00,0.0750
841.00,0.0599
828.00,0.0773
815.00,0.0323
802.00,0.0575
789.00,0.0278
776.00,0.0239
763.00,0.0186
750.00,0.0313
737.00,0.0194
724.00,0.0224
711.00,0.0172
698.00,0.0143
685.00,0.0149
672.00,0.0230
659.00,0.0323
646.00,0.0320
633.00,0.0253
620.00,0.0287
607.00,0.0349
594.00,0.0439
581.00,0.0501
568.00,0.0465
555.00,0.0484
542.00,0.0654
529.00,0.0764
516.00,0.0687
503.00,0.0873
490.00,0.1091
477.00,0.0921
464.00,0.1044
451.00,0.0982
438.00,0.0804
425.00,0.1048
412.00,0.1019
400.00,0.1271

File: 2025_06_05_CBD_Powder_scan3.csv
Created as New Dataset,Sample 584 By YargerLab Date Thursday, June 05 2025
cm-1,A
4000.00,0.0082
3987.00,0.0081
3974.00,0.0081
3961.00,0.0082
3948.00,0.0083
3935.00,0.0082
3922.00,0.0084
3909.00,0.0082
3896.00,0.0080
3883.00,0.0079
3870.00,0.0078
3857.00,0.0079
3844.00,0.0079
3831.00,0.0077
3818.00,0.0076
3805.00,0.0076
3792.00,0.0076
3779.00,0.0077
3766.00,0.0075
3753.00,0.0075
3740.00,0.0073
3727.00,0.0072
3714.00,0.0072
3701.00,0.0071
3688.00,0.0069
3675.00,0.0068
3662.00,0.0067
3649.00,0.0065
3636.00,0.0066
3623.00,0.0068
3610.00,0.0070
3597.00,0.0071
3584.00,0.0074
3571.00,0.0079
3558.00,0.0091
3545.00,0.0123
3532.00,0.0252
3519.00,0.0569
3506.00,0.0308
3493.00,0.0267
3480.00,0.0307
3467.00,0.0388
3454.00,0.0493
3441.00,0.0593
3428.00,0.0684
3415.00,0.0824
3402.00,0.0819
3389.00,0.0511
3376.00,0.0349
3363.00,0.0262
3350.00,0.0209
3337.00,0.0174
3324.00,0.0152
3311.00,0.0136
3298.00,0.0123
3285.00,0.0113
3272.00,0.0104
3259.00,0.0102
3246.00,0.0099
3233.00,0.0094
3220.00,0.0093
3207.00,0.0092
3194.00,0.0090
3181.00,0.0091
3168.00,0.0093
3155.00,0.0091
3142.00,0.0089
3129.00,0.0090
3116.00,0.0089
3103.00,0.0090
3090.00,0.0094
3077.00,0.0176
3064.00,0.0112
3051.00,0.0101
3038.00,0.0119
3025.00,0.0116
3012.00,0.0112
2999.00,0.0118
2986.00,0.0148
2973.00,0.0312
2960.00,0.0484
2947.00,0.0410
2934.00,0.0725
2921.00,0.0951
2908.00,0.0708
2895.00,0.0468
2882.00,0.0389
2869.00,0.0441
2856.00,0.0721
2843.00,0.0303
2830.00,0.0393
2817.00,0.0177
2804.00,0.0140
2791.00,0.0122
2778.00,0.0112
2765.00,0.0105
2752.00,0.0103
2739.00,0.0107
2726.00,0.0120
2713.00,0.0102
2700.00,0.0097
2687.00,0.0097
2674.00,0.0102
2661.00,0.0104
2648.00,0.0101
2635.00,0.0098
2622.00,0.0097
2609.00,0.0095
2596.00,0.0094
2583.00,0.0093
2570.00,0.0092
2557.00,0.0092
2544.00,0.0090
2531.00,0.0089
2518.00,0.0089
2505.00,0.0088
2492.00,0.0089
2479.00,0.0090
2466.00,0.0089
2453.00,0.0092
2440.00,0.0086
2427.00,0.0081
2414.00,0.0078
2401.00,0.0076
2388.00,0.0076
2375.00,0.0071
2362.00,0.0071
2349.00,0.0071
2336.00,0.0074
2323.00,0.0081
2310.00,0.0071
2297.00,0.0074
2284.00,0.0080
2271.00,0.0077
2258.00,0.0075
2245.00,0.0073
2232.00,0.0073
2219.00,0.0070
2206.00,0.0070
2193.00,0.0071
2180.00,0.0068
2167.00,0.0078
2154.00,0.0040
2141.00,0.0053
2128.00,0.0052
2115.00,0.0063
2102.00,0.0061
2089.00,0.0059
2076.00,0.0063
2063.00,0.0055
2050.00,0.0063
2037.00,0.0047
2024.00,0.0044
2011.00,0.0052
1998.00,0.0046
1985.00,0.0060
1972.00,0.0044
1959.00,0.0044
1946.00,0.0048
1933.00,0.0050
1920.00,0.0054
1907.00,0.0056
1894.00,0.0058
1881.00,0.0059
1868.00,0.0059
1855.00,0.0059
1842.00,0.0058
1829.00,0.0061
1816.00,0.0062
1803.00,0.0075
1790.00,0.0068
1777.00,0.0072
1764.00,0.0071
1751.00,0.0066
1738.00,0.0068
1725.00,0.0069
1712.00,0.0077
1699.00,0.0085
1686.00,0.0084
1673.00,0.0092
1660.00,0.0128
1647.00,0.0320
1634.00,0.0642
1621.00,0.0955
1608.00,0.0277
1595.00,0.0308
1582.00,0.1176
1569.00,0.0386
1556.00,0.0172
1543.00,0.0133
1530.00,0.0133
1517.00,0.0282
1504.00,0.0201
1491.00,0.0136
1478.00,0.0137
1465.00,0.0418
1452.00,0.0762
1439.00,0.1367
1426.00,0.0550
1413.00,0.0196
1400.00,0.0154
1387.00,0.0153
1374.00,0.0597
1361.00,0.0274
1348.00,0.0281
1335.00,0.0281
1322.00,0.0392
1309.00,0.0592
1296.00,0.0567
1283.00,0.0545
1270.00,0.0387
1257.00,0.0186
1244.00,0.0324
1231.00,0.0645
1218.00,0.1496
1205.00,0.0967
1192.00,0.0393
1179.00,0.0525
1166.00,0.0331
1153.00,0.0485
1140.00,0.0210
1127.00,0.0167
1114.00,0.0160
1101.00,0.0293
1088.00,0.0187
1075.00,0.0252
1062.00,0.0216
1049.00,0.0709
1036.00,0.0606
1023.00,0.0786
1010.00,0.0595
997.00,0.0522
984.00,0.0427
971.00,0.0291
958.00,0.0398
945.00,0.0188
932.00,0.0194
919.00,0.0230
906.00,0.0350
893.00,0.0933
880.00,0.0975
867.00,0.0544
854.00,0.0745
841.00,0.0595
828.00,0.0768
815.00,0.0321
802.00,0.0573
789.00,0.0278
776.00,0.0238
763.00,0.0186
750.00,0.0311
737.00,0.0195
724.00,0.0222
711.00,0.0171
698.00,0.0143
685.00,0.0151
672.00,0.0230
659.00,0.0321
646.00,0.0318
633.00,0.0251
620.00,0.0286
607.00,0.0347
594.00,0.0434
581.00,0.0498
568.00,0.0462
555.00,0.0481
542.00,0.0643
529.00,0.0751
516.00,0.0681
503.00,0.0858
490.00,0.1078
477.00,0.0911
464.00,0.1024
451.00,0.0962
438.00,0.0793
425.00,0.1038
412.00,0.1012
400.00,0.1265

File: 2025_06_05_Putative_Cocrystal_Sorbic_CBD_Scan1.csv
Created as New Dataset,Sample 588 By YargerLab Date Thursday, June 05 2025
cm-1,A
4000.00,0.0030
3987.00,0.0030
3974.00,0.0030
3961.00,0.0030
3948.00,0.0030
3935.00,0.0029
3922.00,0.0029
3909.00,0.0029
3896.00,0.0029
3883.00,0.0028
3870.00,0.0028
3857.00,0.0029
3844.00,0.0029
3831.00,0.0028
3818.00,0.0028
3805.00,0.0029
3792.00,0.0028
3779.00,0.0028
3766.00,0.0027
3753.00,0.0027
3740.00,0.0025
3727.00,0.0025
3714.00,0.0026
3701.00,0.0024
3688.00,0.0023
3675.00,0.0022
3662.00,0.0022
3649.00,0.0021
3636.00,0.0022
3623.00,0.0023
3610.00,0.0023
3597.00,0.0024
3584.00,0.0025
3571.00,0.0025
3558.00,0.0027
3545.00,0.0029
3532.00,0.0032
3519.00,0.0036
3506.00,0.0043
3493.00,0.0055
3480.00,0.0072
3467.00,0.0108
3454.00,0.0240
3441.00,0.0192
3428.00,0.0109
3415.00,0.0080
3402.00,0.0072
3389.00,0.0069
3376.00,0.0069
3363.00,0.0069
3350.00,0.0072
3337.00,0.0074
3324.00,0.0077
3311.00,0.0082
3298.00,0.0087
3285.00,0.0095
3272.00,0.0101
3259.00,0.0110
3246.00,0.0113
3233.00,0.0120
3220.00,0.0126
3207.00,0.0133
3194.00,0.0139
3181.00,0.0143
3168.00,0.0146
3155.00,0.0147
3142.00,0.0154
3129.00,0.0159
3116.00,0.0162
3103.00,0.0168
3090.00,0.0169
3077.00,0.0176
3064.00,0.0176
3051.00,0.0156
3038.00,0.0151
3025.00,0.0144
3012.00,0.0136
2999.00,0.0132
2986.00,0.0143
2973.00,0.0162
2960.00,0.0217
2947.00,0.0227
2934.00,0.0299
2921.00,0.0361
2908.00,0.0250
2895.00,0.0196
2882.00,0.0186
2869.00,0.0212
2856.00,0.0233
2843.00,0.0174
2830.00,0.0157
2817.00,0.0119
2804.00,0.0111
2791.00,0.0107
2778.00,0.0109
2765.00,0.0113
2752.00,0.0116
2739.00,0.0117
2726.00,0.0120
2713.00,0.0120
2700.00,0.0122
2687.00,0.0122
2674.00,0.0122
2661.00,0.0125
2648.00,0.0122
2635.00,0.0119
2622.00,0.0116
2609.00,0.0112
2596.00,0.0109
2583.00,0.0105
2570.00,0.0104
2557.00,0.0105
2544.00,0.0102
2531.00,0.0098
2518.00,0.0094
2505.00,0.0090
2492.00,0.0089
2479.00,0.0088
2466.00,0.0086
2453.00,0.0089
2440.00,0.0089
2427.00,0.0086
2414.00,0.0084
2401.00,0.0077
2388.00,0.0071
2375.00,0.0064
2362.00,0.0061
2349.00,0.0059
2336.00,0.0058
2323.00,0.0065
2310.00,0.0053
2297.00,0.0053
2284.00,0.0057
2271.00,0.0050
2258.00,0.0047
2245.00,0.0043
2232.00,0.0043
2219.00,0.0041
2206.00,0.0038
2193.00,0.0041
2180.00,0.0031
2167.00,0.0044
2154.00,0.0011
2141.00,0.0018
2128.00,0.0019
2115.00,0.0028
2102.00,0.0026
2089.00,0.0026
2076.00,0.0029
2063.00,0.0024
2050.00,0.0036
2037.00,0.0028
2024.00,0.0022
2011.00,0.0028
1998.00,0.0019
1985.00,0.0033
1972.00,0.0020
1959.00,0.0015
1946.00,0.0017
1933.00,0.0020
1920.00,0.0022
1907.00,0.0023
1894.00,0.0023
1881.00,0.0024
1868.00,0.0026
1855.00,0.0025
1842.00,0.0026
1829.00,0.0027
1816.00,0.0025
1803.00,0.0031
1790.00,0.0035
1777.00,0.0035
1764.00,0.0035
1751.00,0.0036
1738.00,0.0035
1725.00,0.0035
1712.00,0.0044
1699.00,0.0051
1686.00,0.0057
1673.00,0.0070
1660.00,0.0112
1647.00,0.0260
1634.00,0.0586
1621.00,0.0342
1608.00,0.0223
1595.00,0.0287
1582.00,0.0590
1569.00,0.0575
1556.00,0.0368
1543.00,0.0230
1530.00,0.0212
1517.00,0.0184
1504.00,0.0134
1491.00,0.0117
1478.00,0.0141
1465.00,0.0227
1452.00,0.0482
1439.00,0.0551
1426.00,0.0326
1413.00,0.0289
1400.00,0.0310
1387.00,0.0266
1374.00,0.0333
1361.00,0.0310
1348.00,0.0392
1335.00,0.0363
1322.00,0.0442
1309.00,0.0325
1296.00,0.0302
1283.00,0.0432
1270.00,0.0251
1257.00,0.0210
1244.00,0.0371
1231.00,0.0243
1218.00,0.0238
1205.00,0.0369
1192.00,0.0177
1179.00,0.0205
1166.00,0.0246
1153.00,0.0201
1140.00,0.0135
1127.00,0.0101
1114.00,0.0097
1101.00,0.0147
1088.00,0.0118
1075.00,0.0114
1062.00,0.0161
1049.00,0.0260
1036.00,0.0391
1023.00,0.0250
1010.00,0.0172
997.00,0.0191
984.00,0.0157
971.00,0.0133
958.00,0.0180
945.00,0.0167
932.00,0.0155
919.00,0.0211
906.00,0.0210
893.00,0.0308
880.00,0.0317
867.00,0.0290
854.00,0.0409
841.00,0.0373
828.00,0.0293
815.00,0.0199
802.00,0.0298
789.00,0.0256
776.00,0.0234
763.00,0.0238
750.00,0.0205
737.00,0.0243
724.00,0.0227
711.00,0.0223
698.00,0.0223
685.00,0.0260
672.00,0.0281
659.00,0.0224
646.00,0.0227
633.00,0.0247
620.00,0.0225
607.00,0.0239
594.00,0.0238
581.00,0.0302
568.00,0.0210
555.00,0.0297
542.00,0.0271
529.00,0.0282
516.00,0.0240
503.00,0.0291
490.00,0.0475
477.00,0.0485
464.00,0.0447
451.00,0.0377
438.00,0.0353
425.00,0.0306
412.00,0.0285
400.00,0.0297

File: 2025_06_05_Putative_Cocrystal_Sorbic_CBD_Scan2.csv
Created as New Dataset,Sample 589 By YargerLab Date Thursday, June 05 2025
cm-1,A
4000.00,0.0026
3987.00,0.0026
3974.00,0.0026
3961.00,0.0026
3948.00,0.0025
3935.00,0.0025
3922.00,0.0025
3909.00,0.0025
3896.00,0.0024
3883.00,0.0023
3870.00,0.0023
3857.00,0.0024
3844.00,0.0023
3831.00,0.0023
3818.00,0.0022
3805.00,0.0023
3792.00,0.0023
3779.00,0.0023
3766.00,0.0022
3753.00,0.0022
3740.00,0.0020
3727.00,0.0021
3714.00,0.0021
3701.00,0.0021
3688.00,0.0018
3675.00,0.0017
3662.00,0.0017
3649.00,0.0016
3636.00,0.0017
3623.00,0.0019
3610.00,0.0020
3597.00,0.0020
3584.00,0.0021
3571.00,0.0023
3558.00,0.0026
3545.00,0.0029
3532.00,0.0034
3519.00,0.0041
3506.00,0.0053
3493.00,0.0074
3480.00,0.0108
3467.00,0.0178
3454.00,0.0434
3441.00,0.0339
3428.00,0.0174
3415.00,0.0120
3402.00,0.0103
3389.00,0.0098
3376.00,0.0098
3363.00,0.0099
3350.00,0.0103
3337.00,0.0108
3324.00,0.0115
3311.00,0.0124
3298.00,0.0134
3285.00,0.0148
3272.00,0.0159
3259.00,0.0176
3246.00,0.0185
3233.00,0.0197
3220.00,0.0209
3207.00,0.0223
3194.00,0.0235
3181.00,0.0242
3168.00,0.0248
3155.00,0.0250
3142.00,0.0263
3129.00,0.0273
3116.00,0.0279
3103.00,0.0290
3090.00,0.0292
3077.00,0.0305
3064.00,0.0306
3051.00,0.0266
3038.00,0.0256
3025.00,0.0244
3012.00,0.0231
2999.00,0.0230
2986.00,0.0258
2973.00,0.0299
2960.00,0.0394
2947.00,0.0415
2934.00,0.0545
2921.00,0.0681
2908.00,0.0456
2895.00,0.0346
2882.00,0.0325
2869.00,0.0374
2856.00,0.0414
2843.00,0.0295
2830.00,0.0263
2817.00,0.0188
2804.00,0.0172
2791.00,0.0165
2778.00,0.0168
2765.00,0.0176
2752.00,0.0181
2739.00,0.0184
2726.00,0.0189
2713.00,0.0189
2700.00,0.0192
2687.00,0.0193
2674.00,0.0191
2661.00,0.0195
2648.00,0.0190
2635.00,0.0186
2622.00,0.0182
2609.00,0.0177
2596.00,0.0171
2583.00,0.0165
2570.00,0.0163
2557.00,0.0166
2544.00,0.0162
2531.00,0.0153
2518.00,0.0149
2505.00,0.0140
2492.00,0.0137
2479.00,0.0135
2466.00,0.0133
2453.00,0.0138
2440.00,0.0137
2427.00,0.0134
2414.00,0.0129
2401.00,0.0117
2388.00,0.0106
2375.00,0.0096
2362.00,0.0088
2349.00,0.0082
2336.00,0.0077
2323.00,0.0081
2310.00,0.0067
2297.00,0.0065
2284.00,0.0067
2271.00,0.0059
2258.00,0.0054
2245.00,0.0049
2232.00,0.0048
2219.00,0.0045
2206.00,0.0040
2193.00,0.0042
2180.00,0.0038
2167.00,0.0047
2154.00,0.0007
2141.00,0.0017
2128.00,0.0017
2115.00,0.0026
2102.00,0.0023
2089.00,0.0023
2076.00,0.0023
2063.00,0.0018
2050.00,0.0030
2037.00,0.0025
2024.00,0.0016
2011.00,0.0021
1998.00,0.0017
1985.00,0.0029
1972.00,0.0016
1959.00,0.0013
1946.00,0.0014
1933.00,0.0016
1920.00,0.0018
1907.00,0.0019
1894.00,0.0018
1881.00,0.0019
1868.00,0.0021
1855.00,0.0020
1842.00,0.0022
1829.00,0.0022
1816.00,0.0019
1803.00,0.0027
1790.00,0.0032
1777.00,0.0035
1764.00,0.0033
1751.00,0.0034
1738.00,0.0033
1725.00,0.0036
1712.00,0.0047
1699.00,0.0055
1686.00,0.0066
1673.00,0.0092
1660.00,0.0168
1647.00,0.0443
1634.00,0.1092
1621.00,0.0612
1608.00,0.0372
1595.00,0.0490
1582.00,0.1116
1569.00,0.1086
1556.00,0.0637
1543.00,0.0385
1530.00,0.0341
1517.00,0.0289
1504.00,0.0190
1491.00,0.0165
1478.00,0.0212
1465.00,0.0380
1452.00,0.0874
1439.00,0.1049
1426.00,0.0559
1413.00,0.0484
1400.00,0.0538
1387.00,0.0447
1374.00,0.0577
1361.00,0.0522
1348.00,0.0690
1335.00,0.0627
1322.00,0.0782
1309.00,0.0547
1296.00,0.0501
1283.00,0.0768
1270.00,0.0413
1257.00,0.0323
1244.00,0.0651
1231.00,0.0382
1218.00,0.0371
1205.00,0.0644
1192.00,0.0250
1179.00,0.0306
1166.00,0.0402
1153.00,0.0299
1140.00,0.0167
1127.00,0.0102
1114.00,0.0094
1101.00,0.0197
1088.00,0.0133
1075.00,0.0126
1062.00,0.0218
1049.00,0.0413
1036.00,0.0681
1023.00,0.0377
1010.00,0.0214
997.00,0.0252
984.00,0.0186
971.00,0.0145
958.00,0.0247
945.00,0.0212
932.00,0.0186
919.00,0.0295
906.00,0.0286
893.00,0.0476
880.00,0.0498
867.00,0.0432
854.00,0.0673
841.00,0.0594
828.00,0.0428
815.00,0.0243
802.00,0.0445
789.00,0.0347
776.00,0.0297
763.00,0.0304
750.00,0.0236
737.00,0.0312
724.00,0.0270
711.00,0.0264
698.00,0.0260
685.00,0.0328
672.00,0.0365
659.00,0.0247
646.00,0.0249
633.00,0.0279
620.00,0.0236
607.00,0.0262
594.00,0.0254
581.00,0.0373
568.00,0.0186
555.00,0.0360
542.00,0.0303
529.00,0.0321
516.00,0.0225
503.00,0.0335
490.00,0.0736
477.00,0.0731
464.00,0.0657
451.00,0.0484
438.00,0.0418
425.00,0.0314
412.00,0.0278
400.00,0.0303

File: 2025_06_05_Putative_Cocrystal_Sorbic_CBD_Scan3.csv
Created as New Dataset,Sample 590 By YargerLab Date Thursday, June 05 2025
cm-1,A
4000.00,0.0028
3987.00,0.0028
3974.00,0.0028
3961.00,0.0027
3948.00,0.0027
3935.00,0.0026
3922.00,0.0026
3909.00,0.0027
3896.00,0.0025
3883.00,0.0025
3870.00,0.0024
3857.00,0.0025
3844.00,0.0025
3831.00,0.0024
3818.00,0.0023
3805.00,0.0024
3792.00,0.0024
3779.00,0.0024
3766.00,0.0023
3753.00,0.0022
3740.00,0.0021
3727.00,0.0022
3714.00,0.0022
3701.00,0.0021
3688.00,0.0019
3675.00,0.0018
3662.00,0.0019
3649.00,0.0017
3636.00,0.0019
3623.00,0.0020
3610.00,0.0021
3597.00,0.0022
3584.00,0.0023
3571.00,0.0025
3558.00,0.0028
3545.00,0.0030
3532.00,0.0036
3519.00,0.0045
3506.00,0.0057
3493.00,0.0080
3480.00,0.0118
3467.00,0.0194
3454.00,0.0478
3441.00,0.0373
3428.00,0.0185
3415.00,0.0127
3402.00,0.0111
3389.00,0.0106
3376.00,0.0106
3363.00,0.0107
3350.00,0.0112
3337.00,0.0117
3324.00,0.0124
3311.00,0.0134
3298.00,0.0145
3285.00,0.0161
3272.00,0.0174
3259.00,0.0191
3246.00,0.0201
3233.00,0.0216
3220.00,0.0229
3207.00,0.0244
3194.00,0.0256
3181.00,0.0265
3168.00,0.0270
3155.00,0.0272
3142.00,0.0286
3129.00,0.0298
3116.00,0.0304
3103.00,0.0317
3090.00,0.0320
3077.00,0.0333
3064.00,0.0334
3051.00,0.0292
3038.00,0.0279
3025.00,0.0267
3012.00,0.0253
2999.00,0.0254
2986.00,0.0287
2973.00,0.0333
2960.00,0.0434
2947.00,0.0456
2934.00,0.0598
2921.00,0.0750
2908.00,0.0501
2895.00,0.0380
2882.00,0.0356
2869.00,0.0410
2856.00,0.0453
2843.00,0.0323
2830.00,0.0287
2817.00,0.0206
2804.00,0.0187
2791.00,0.0180
2778.00,0.0183
2765.00,0.0192
2752.00,0.0198
2739.00,0.0201
2726.00,0.0206
2713.00,0.0207
2700.00,0.0210
2687.00,0.0211
2674.00,0.0209
2661.00,0.0213
2648.00,0.0207
2635.00,0.0203
2622.00,0.0199
2609.00,0.0194
2596.00,0.0187
2583.00,0.0180
2570.00,0.0178
2557.00,0.0182
2544.00,0.0177
2531.00,0.0167
2518.00,0.0162
2505.00,0.0153
2492.00,0.0150
2479.00,0.0147
2466.00,0.0146
2453.00,0.0150
2440.00,0.0150
2427.00,0.0147
2414.00,0.0141
2401.00,0.0128
2388.00,0.0117
2375.00,0.0106
2362.00,0.0098
2349.00,0.0091
2336.00,0.0085
2323.00,0.0086
2310.00,0.0074
2297.00,0.0070
2284.00,0.0071
2271.00,0.0063
2258.00,0.0059
2245.00,0.0053
2232.00,0.0053
2219.00,0.0046
2206.00,0.0047
2193.00,0.0044
2180.00,0.0040
2167.00,0.0050
2154.00,0.0011
2141.00,0.0019
2128.00,0.0020
2115.00,0.0029
2102.00,0.0026
2089.00,0.0026
2076.00,0.0026
2063.00,0.0021
2050.00,0.0032
2037.00,0.0025
2024.00,0.0019
2011.00,0.0019
1998.00,0.0019
1985.00,0.0033
1972.00,0.0017
1959.00,0.0014
1946.00,0.0017
1933.00,0.0018
1920.00,0.0021
1907.00,0.0021
1894.00,0.0021
1881.00,0.0020
1868.00,0.0024
1855.00,0.0022
1842.00,0.0024
1829.00,0.0024
1816.00,0.0021
1803.00,0.0029
1790.00,0.0035
1777.00,0.0038
1764.00,0.0036
1751.00,0.0037
1738.00,0.0037
1725.00,0.0040
1712.00,0.0052
1699.00,0.0061
1686.00,0.0071
1673.00,0.0099
1660.00,0.0182
1647.00,0.0479
1634.00,0.1196
1621.00,0.0669
1608.00,0.0404
1595.00,0.0532
1582.00,0.1221
1569.00,0.1194
1556.00,0.0700
1543.00,0.0420
1530.00,0.0372
1517.00,0.0316
1504.00,0.0207
1491.00,0.0180
1478.00,0.0232
1465.00,0.0415
1452.00,0.0953
1439.00,0.1152
1426.00,0.0610
1413.00,0.0528
1400.00,0.0589
1387.00,0.0490
1374.00,0.0631
1361.00,0.0569
1348.00,0.0755
1335.00,0.0685
1322.00,0.0853
1309.00,0.0596
1296.00,0.0545
1283.00,0.0839
1270.00,0.0449
1257.00,0.0351
1244.00,0.0715
1231.00,0.0417
1218.00,0.0403
1205.00,0.0705
1192.00,0.0272
1179.00,0.0333
1166.00,0.0443
1153.00,0.0327
1140.00,0.0183
1127.00,0.0112
1114.00,0.0104
1101.00,0.0216
1088.00,0.0147
1075.00,0.0139
1062.00,0.0238
1049.00,0.0451
1036.00,0.0744
1023.00,0.0412
1010.00,0.0233
997.00,0.0275
984.00,0.0202
971.00,0.0159
958.00,0.0271
945.00,0.0232
932.00,0.0204
919.00,0.0322
906.00,0.0311
893.00,0.0519
880.00,0.0541
867.00,0.0468
854.00,0.0734
841.00,0.0645
828.00,0.0467
815.00,0.0263
802.00,0.0486
789.00,0.0377
776.00,0.0322
763.00,0.0330
750.00,0.0256
737.00,0.0339
724.00,0.0293
711.00,0.0285
698.00,0.0282
685.00,0.0357
672.00,0.0395
659.00,0.0269
646.00,0.0269
633.00,0.0302
620.00,0.0256
607.00,0.0282
594.00,0.0276
581.00,0.0404
568.00,0.0199
555.00,0.0391
542.00,0.0328
529.00,0.0348
516.00,0.0246
503.00,0.0355
490.00,0.0800
477.00,0.0803
464.00,0.0720
451.00,0.0521
438.00,0.0461
425.00,0.0343
412.00,0.0304
400.00,0.0307