Folder: Data/FTIR/Olivia (part 21)

File: 2025_08_06_1CBN_3PVP10_MP_Powder_Sigma3.csv
Created as New Dataset,Sample 007 By YargerLab Date Wednesday, August 06 2025
cm-1,A
4000.00,0.0008
3987.00,0.0007
3974.00,0.0007
3961.00,0.0007
3948.00,0.0006
3935.00,0.0007
3922.00,0.0006
3909.00,0.0007
3896.00,0.0006
3883.00,0.0005
3870.00,0.0005
3857.00,0.0005
3844.00,0.0006
3831.00,0.0006
3818.00,0.0004
3805.00,0.0005
3792.00,0.0007
3779.00,0.0008
3766.00,0.0007
3753.00,0.0005
3740.00,0.0005
3727.00,0.0005
3714.00,0.0006
3701.00,0.0007
3688.00,0.0006
3675.00,0.0007
3662.00,0.0012
3649.00,0.0012
3636.00,0.0018
3623.00,0.0023
3610.00,0.0027
3597.00,0.0036
3584.00,0.0042
3571.00,0.0054
3558.00,0.0064
3545.00,0.0072
3532.00,0.0081
3519.00,0.0088
3506.00,0.0096
3493.00,0.0100
3480.00,0.0103
3467.00,0.0108
3454.00,0.0112
3441.00,0.0115
3428.00,0.0118
3415.00,0.0120
3402.00,0.0123
3389.00,0.0122
3376.00,0.0119
3363.00,0.0112
3350.00,0.0106
3337.00,0.0101
3324.00,0.0097
3311.00,0.0095
3298.00,0.0093
3285.00,0.0092
3272.00,0.0090
3259.00,0.0088
3246.00,0.0085
3233.00,0.0081
3220.00,0.0077
3207.00,0.0073
3194.00,0.0068
3181.00,0.0063
3168.00,0.0057
3155.00,0.0053
3142.00,0.0048
3129.00,0.0044
3116.00,0.0040
3103.00,0.0038
3090.00,0.0035
3077.00,0.0032
3064.00,0.0030
3051.00,0.0028
3038.00,0.0026
3025.00,0.0025
3012.00,0.0029
2999.00,0.0043
2986.00,0.0057
2973.00,0.0076
2960.00,0.0088
2947.00,0.0089
2934.00,0.0092
2921.00,0.0092
2908.00,0.0080
2895.00,0.0076
2882.00,0.0075
2869.00,0.0071
2856.00,0.0069
2843.00,0.0048
2830.00,0.0036
2817.00,0.0029
2804.00,0.0024
2791.00,0.0022
2778.00,0.0021
2765.00,0.0020
2752.00,0.0019
2739.00,0.0019
2726.00,0.0020
2713.00,0.0019
2700.00,0.0018
2687.00,0.0017
2674.00,0.0017
2661.00,0.0020
2648.00,0.0021
2635.00,0.0020
2622.00,0.0019
2609.00,0.0018
2596.00,0.0018
2583.00,0.0017
2570.00,0.0016
2557.00,0.0014
2544.00,0.0014
2531.00,0.0012
2518.00,0.0013
2505.00,0.0012
2492.00,0.0012
2479.00,0.0011
2466.00,0.0011
2453.00,0.0012
2440.00,0.0011
2427.00,0.0010
2414.00,0.0010
2401.00,0.0009
2388.00,0.0009
2375.00,0.0008
2362.00,0.0009
2349.00,0.0011
2336.00,0.0013
2323.00,0.0024
2310.00,0.0016
2297.00,0.0019
2284.00,0.0022
2271.00,0.0019
2258.00,0.0017
2245.00,0.0015
2232.00,0.0016
2219.00,0.0015
2206.00,0.0016
2193.00,0.0019
2180.00,0.0014
2167.00,0.0026
2154.00,-0.0004
2141.00,0.0001
2128.00,0.0002
2115.00,0.0016
2102.00,0.0015
2089.00,0.0012
2076.00,0.0014
2063.00,0.0011
2050.00,0.0021
2037.00,0.0017
2024.00,0.0006
2011.00,0.0006
1998.00,0.0004
1985.00,0.0014
1972.00,0.0000
1959.00,-0.0004
1946.00,0.0000
1933.00,0.0001
1920.00,0.0004
1907.00,0.0004
1894.00,0.0006
1881.00,0.0005
1868.00,0.0005
1855.00,0.0007
1842.00,0.0004
1829.00,0.0006
1816.00,0.0004
1803.00,0.0007
1790.00,0.0007
1777.00,0.0008
1764.00,0.0009
1751.00,0.0011
1738.00,0.0013
1725.00,0.0019
1712.00,0.0030
1699.00,0.0072
1686.00,0.0229
1673.00,0.0417
1660.00,0.0596
1647.00,0.0679
1634.00,0.0497
1621.00,0.0362
1608.00,0.0237
1595.00,0.0137
1582.00,0.0125
1569.00,0.0089
1556.00,0.0061
1543.00,0.0053
1530.00,0.0049
1517.00,0.0054
1504.00,0.0086
1491.00,0.0150
1478.00,0.0082
1465.00,0.0243
1452.00,0.0202
1439.00,0.0342
1426.00,0.0386
1413.00,0.0241
1400.00,0.0150
1387.00,0.0129
1374.00,0.0163
1361.00,0.0144
1348.00,0.0108
1335.00,0.0104
1322.00,0.0162
1309.00,0.0162
1296.00,0.0304
1283.00,0.0475
1270.00,0.0419
1257.00,0.0236
1244.00,0.0199
1231.00,0.0230
1218.00,0.0228
1205.00,0.0184
1192.00,0.0178
1179.00,0.0145
1166.00,0.0154
1153.00,0.0153
1140.00,0.0105
1127.00,0.0139
1114.00,0.0113
1101.00,0.0128
1088.00,0.0102
1075.00,0.0109
1062.00,0.0128
1049.00,0.0168
1036.00,0.0130
1023.00,0.0164
1010.00,0.0122
997.00,0.0123
984.00,0.0091
971.00,0.0081
958.00,0.0076
945.00,0.0063
932.00,0.0100
919.00,0.0085
906.00,0.0086
893.00,0.0098
880.00,0.0086
867.00,0.0119
854.00,0.0142
841.00,0.0161
828.00,0.0135
815.00,0.0165
802.00,0.0105
789.00,0.0111
776.00,0.0131
763.00,0.0151
750.00,0.0186
737.00,0.0244
724.00,0.0224
711.00,0.0217
698.00,0.0234
685.00,0.0255
672.00,0.0296
659.00,0.0343
646.00,0.0384
633.00,0.0357
620.00,0.0357
607.00,0.0355
594.00,0.0389
581.00,0.0429
568.00,0.0446
555.00,0.0435
542.00,0.0432
529.00,0.0434
516.00,0.0411
503.00,0.0410
490.00,0.0424
477.00,0.0434
464.00,0.0429
451.00,0.0407
438.00,0.0388
425.00,0.0372
412.00,0.0365
400.00,0.0365

File: 2025_08_06_1CBN_3PVP29_MP_Powder_Scan1.csv
Created as New Dataset,Sample 1091 By YargerLab Date Wednesday, August 06 2025
cm-1,A
4000.00,0.0004
3987.00,0.0004
3974.00,0.0004
3961.00,0.0004
3948.00,0.0004
3935.00,0.0004
3922.00,0.0003
3909.00,0.0004
3896.00,0.0003
3883.00,0.0002
3870.00,0.0002
3857.00,0.0003
3844.00,0.0004
3831.00,0.0004
3818.00,0.0002
3805.00,0.0003
3792.00,0.0004
3779.00,0.0004
3766.00,0.0003
3753.00,0.0003
3740.00,0.0003
3727.00,0.0004
3714.00,0.0004
3701.00,0.0004
3688.00,0.0003
3675.00,0.0003
3662.00,0.0005
3649.00,0.0003
3636.00,0.0007
3623.00,0.0007
3610.00,0.0009
3597.00,0.0012
3584.00,0.0014
3571.00,0.0018
3558.00,0.0021
3545.00,0.0024
3532.00,0.0029
3519.00,0.0030
3506.00,0.0033
3493.00,0.0036
3480.00,0.0037
3467.00,0.0040
3454.00,0.0043
3441.00,0.0045
3428.00,0.0048
3415.00,0.0052
3402.00,0.0057
3389.00,0.0058
3376.00,0.0055
3363.00,0.0050
3350.00,0.0045
3337.00,0.0042
3324.00,0.0040
3311.00,0.0039
3298.00,0.0040
3285.00,0.0040
3272.00,0.0041
3259.00,0.0041
3246.00,0.0042
3233.00,0.0043
3220.00,0.0043
3207.00,0.0041
3194.00,0.0039
3181.00,0.0036
3168.00,0.0031
3155.00,0.0028
3142.00,0.0025
3129.00,0.0021
3116.00,0.0019
3103.00,0.0017
3090.00,0.0017
3077.00,0.0015
3064.00,0.0015
3051.00,0.0014
3038.00,0.0014
3025.00,0.0013
3012.00,0.0015
2999.00,0.0024
2986.00,0.0030
2973.00,0.0046
2960.00,0.0054
2947.00,0.0048
2934.00,0.0067
2921.00,0.0069
2908.00,0.0051
2895.00,0.0044
2882.00,0.0041
2869.00,0.0042
2856.00,0.0054
2843.00,0.0034
2830.00,0.0023
2817.00,0.0017
2804.00,0.0015
2791.00,0.0014
2778.00,0.0013
2765.00,0.0012
2752.00,0.0012
2739.00,0.0012
2726.00,0.0012
2713.00,0.0012
2700.00,0.0012
2687.00,0.0011
2674.00,0.0011
2661.00,0.0015
2648.00,0.0016
2635.00,0.0015
2622.00,0.0014
2609.00,0.0013
2596.00,0.0013
2583.00,0.0011
2570.00,0.0010
2557.00,0.0010
2544.00,0.0010
2531.00,0.0009
2518.00,0.0008
2505.00,0.0007
2492.00,0.0008
2479.00,0.0007
2466.00,0.0007
2453.00,0.0009
2440.00,0.0007
2427.00,0.0006
2414.00,0.0006
2401.00,0.0004
2388.00,0.0004
2375.00,0.0002
2362.00,0.0005
2349.00,0.0006
2336.00,0.0008
2323.00,0.0019
2310.00,0.0011
2297.00,0.0014
2284.00,0.0018
2271.00,0.0015
2258.00,0.0013
2245.00,0.0010
2232.00,0.0011
2219.00,0.0011
2206.00,0.0010
2193.00,0.0013
2180.00,0.0007
2167.00,0.0020
2154.00,-0.0013
2141.00,-0.0006
2128.00,-0.0002
2115.00,0.0008
2102.00,0.0007
2089.00,0.0007
2076.00,0.0010
2063.00,0.0008
2050.00,0.0016
2037.00,0.0013
2024.00,0.0000
2011.00,0.0005
1998.00,0.0004
1985.00,0.0013
1972.00,-0.0002
1959.00,-0.0006
1946.00,-0.0000
1933.00,-0.0002
1920.00,0.0002
1907.00,0.0004
1894.00,0.0003
1881.00,0.0002
1868.00,0.0003
1855.00,0.0004
1842.00,0.0004
1829.00,0.0004
1816.00,0.0001
1803.00,0.0006
1790.00,0.0006
1777.00,0.0006
1764.00,0.0008
1751.00,0.0009
1738.00,0.0011
1725.00,0.0015
1712.00,0.0021
1699.00,0.0044
1686.00,0.0106
1673.00,0.0179
1660.00,0.0242
1647.00,0.0283
1634.00,0.0213
1621.00,0.0182
1608.00,0.0123
1595.00,0.0070
1582.00,0.0079
1569.00,0.0055
1556.00,0.0032
1543.00,0.0028
1530.00,0.0025
1517.00,0.0028
1504.00,0.0044
1491.00,0.0075
1478.00,0.0042
1465.00,0.0117
1452.00,0.0098
1439.00,0.0158
1426.00,0.0188
1413.00,0.0124
1400.00,0.0099
1387.00,0.0082
1374.00,0.0087
1361.00,0.0088
1348.00,0.0072
1335.00,0.0059
1322.00,0.0081
1309.00,0.0082
1296.00,0.0150
1283.00,0.0225
1270.00,0.0191
1257.00,0.0116
1244.00,0.0110
1231.00,0.0127
1218.00,0.0116
1205.00,0.0095
1192.00,0.0106
1179.00,0.0076
1166.00,0.0076
1153.00,0.0094
1140.00,0.0056
1127.00,0.0100
1114.00,0.0071
1101.00,0.0086
1088.00,0.0058
1075.00,0.0058
1062.00,0.0067
1049.00,0.0133
1036.00,0.0089
1023.00,0.0125
1010.00,0.0080
997.00,0.0083
984.00,0.0059
971.00,0.0052
958.00,0.0051
945.00,0.0033
932.00,0.0056
919.00,0.0053
906.00,0.0049
893.00,0.0055
880.00,0.0046
867.00,0.0083
854.00,0.0082
841.00,0.0085
828.00,0.0075
815.00,0.0109
802.00,0.0056
789.00,0.0057
776.00,0.0066
763.00,0.0073
750.00,0.0083
737.00,0.0114
724.00,0.0108
711.00,0.0106
698.00,0.0113
685.00,0.0121
672.00,0.0148
659.00,0.0162
646.00,0.0170
633.00,0.0159
620.00,0.0163
607.00,0.0164
594.00,0.0185
581.00,0.0194
568.00,0.0203
555.00,0.0202
542.00,0.0207
529.00,0.0202
516.00,0.0188
503.00,0.0189
490.00,0.0186
477.00,0.0191
464.00,0.0179
451.00,0.0179
438.00,0.0173
425.00,0.0165
412.00,0.0168
400.00,0.0191

File: 2025_08_06_1CBN_3PVP29_MP_Powder_Scan2.csv
Created as New Dataset,Sample 1092 By YargerLab Date Wednesday, August 06 2025
cm-1,A
4000.00,0.0003
3987.00,0.0003
3974.00,0.0003
3961.00,0.0003
3948.00,0.0003
3935.00,0.0004
3922.00,0.0003
3909.00,0.0004
3896.00,0.0005
3883.00,0.0004
3870.00,0.0006
3857.00,0.0006
3844.00,0.0006
3831.00,0.0006
3818.00,0.0007
3805.00,0.0006
3792.00,0.0003
3779.00,0.0004
3766.00,0.0004
3753.00,0.0008
3740.00,0.0008
3727.00,0.0005
3714.00,0.0005
3701.00,0.0003
3688.00,0.0005
3675.00,0.0007
3662.00,0.0003
3649.00,0.0008
3636.00,0.0006
3623.00,0.0007
3610.00,0.0011
3597.00,0.0011
3584.00,0.0014
3571.00,0.0016
3558.00,0.0018
3545.00,0.0021
3532.00,0.0024
3519.00,0.0026
3506.00,0.0028
3493.00,0.0030
3480.00,0.0032
3467.00,0.0034
3454.00,0.0036
3441.00,0.0039
3428.00,0.0041
3415.00,0.0046
3402.00,0.0051
3389.00,0.0051
3376.00,0.0047
3363.00,0.0042
3350.00,0.0037
3337.00,0.0035
3324.00,0.0032
3311.00,0.0031
3298.00,0.0032
3285.00,0.0033
3272.00,0.0034
3259.00,0.0035
3246.00,0.0036
3233.00,0.0038
3220.00,0.0039
3207.00,0.0037
3194.00,0.0034
3181.00,0.0032
3168.00,0.0027
3155.00,0.0024
3142.00,0.0021
3129.00,0.0018
3116.00,0.0016
3103.00,0.0014
3090.00,0.0013
3077.00,0.0012
3064.00,0.0012
3051.00,0.0011
3038.00,0.0011
3025.00,0.0011
3012.00,0.0012
2999.00,0.0020
2986.00,0.0023
2973.00,0.0035
2960.00,0.0046
2947.00,0.0043
2934.00,0.0060
2921.00,0.0064
2908.00,0.0046
2895.00,0.0038
2882.00,0.0036
2869.00,0.0037
2856.00,0.0050
2843.00,0.0031
2830.00,0.0019
2817.00,0.0014
2804.00,0.0012
2791.00,0.0011
2778.00,0.0010
2765.00,0.0009
2752.00,0.0009
2739.00,0.0010
2726.00,0.0010
2713.00,0.0009
2700.00,0.0009
2687.00,0.0008
2674.00,0.0008
2661.00,0.0012
2648.00,0.0013
2635.00,0.0013
2622.00,0.0012
2609.00,0.0010
2596.00,0.0010
2583.00,0.0009
2570.00,0.0008
2557.00,0.0008
2544.00,0.0007
2531.00,0.0006
2518.00,0.0005
2505.00,0.0005
2492.00,0.0005
2479.00,0.0004
2466.00,0.0005
2453.00,0.0006
2440.00,0.0004
2427.00,0.0003
2414.00,0.0003
2401.00,0.0001
2388.00,0.0001
2375.00,-0.0003
2362.00,-0.0003
2349.00,-0.0002
2336.00,0.0002
2323.00,0.0013
2310.00,0.0005
2297.00,0.0008
2284.00,0.0013
2271.00,0.0011
2258.00,0.0009
2245.00,0.0007
2232.00,0.0008
2219.00,0.0007
2206.00,0.0008
2193.00,0.0011
2180.00,0.0008
2167.00,0.0016
2154.00,-0.0012
2141.00,-0.0009
2128.00,-0.0006
2115.00,0.0005
2102.00,0.0005
2089.00,0.0004
2076.00,0.0007
2063.00,0.0004
2050.00,0.0011
2037.00,0.0009
2024.00,-0.0003
2011.00,-0.0002
1998.00,0.0002
1985.00,0.0008
1972.00,-0.0006
1959.00,-0.0010
1946.00,-0.0007
1933.00,-0.0004
1920.00,-0.0002
1907.00,0.0001
1894.00,0.0001
1881.00,-0.0001
1868.00,-0.0001
1855.00,0.0000
1842.00,0.0000
1829.00,0.0001
1816.00,-0.0002
1803.00,0.0003
1790.00,0.0003
1777.00,0.0003
1764.00,0.0005
1751.00,0.0006
1738.00,0.0008
1725.00,0.0012
1712.00,0.0018
1699.00,0.0042
1686.00,0.0111
1673.00,0.0173
1660.00,0.0221
1647.00,0.0263
1634.00,0.0199
1621.00,0.0167
1608.00,0.0116
1595.00,0.0062
1582.00,0.0073
1569.00,0.0050
1556.00,0.0027
1543.00,0.0023
1530.00,0.0020
1517.00,0.0023
1504.00,0.0039
1491.00,0.0071
1478.00,0.0036
1465.00,0.0108
1452.00,0.0089
1439.00,0.0148
1426.00,0.0176
1413.00,0.0113
1400.00,0.0089
1387.00,0.0073
1374.00,0.0077
1361.00,0.0079
1348.00,0.0066
1335.00,0.0052
1322.00,0.0073
1309.00,0.0073
1296.00,0.0139
1283.00,0.0212
1270.00,0.0180
1257.00,0.0106
1244.00,0.0102
1231.00,0.0118
1218.00,0.0107
1205.00,0.0087
1192.00,0.0098
1179.00,0.0067
1166.00,0.0061
1153.00,0.0081
1140.00,0.0044
1127.00,0.0084
1114.00,0.0059
1101.00,0.0073
1088.00,0.0046
1075.00,0.0048
1062.00,0.0056
1049.00,0.0123
1036.00,0.0081
1023.00,0.0120
1010.00,0.0072
997.00,0.0074
984.00,0.0050
971.00,0.0043
958.00,0.0035
945.00,0.0017
932.00,0.0046
919.00,0.0043
906.00,0.0042
893.00,0.0047
880.00,0.0039
867.00,0.0074
854.00,0.0074
841.00,0.0075
828.00,0.0065
815.00,0.0094
802.00,0.0048
789.00,0.0048
776.00,0.0057
763.00,0.0064
750.00,0.0073
737.00,0.0102
724.00,0.0098
711.00,0.0095
698.00,0.0102
685.00,0.0108
672.00,0.0133
659.00,0.0148
646.00,0.0155
633.00,0.0144
620.00,0.0148
607.00,0.0149
594.00,0.0171
581.00,0.0172
568.00,0.0182
555.00,0.0183
542.00,0.0190
529.00,0.0185
516.00,0.0171
503.00,0.0167
490.00,0.0172
477.00,0.0168
464.00,0.0164
451.00,0.0163
438.00,0.0153
425.00,0.0141
412.00,0.0148
400.00,0.0127

File: 2025_08_06_1CBN_3PVP29_MP_Powder_Scan3.csv
Created as New Dataset,Sample 001 By YargerLab Date Wednesday, August 06 2025
cm-1,A
4000.00,0.0005
3987.00,0.0005
3974.00,0.0005
3961.00,0.0005
3948.00,0.0006
3935.00,0.0006
3922.00,0.0006
3909.00,0.0006
3896.00,0.0008
3883.00,0.0008
3870.00,0.0009
3857.00,0.0009
3844.00,0.0007
3831.00,0.0009
3818.00,0.0010
3805.00,0.0009
3792.00,0.0006
3779.00,0.0006
3766.00,0.0007
3753.00,0.0011
3740.00,0.0011
3727.00,0.0007
3714.00,0.0007
3701.00,0.0005
3688.00,0.0008
3675.00,0.0010
3662.00,0.0005
3649.00,0.0011
3636.00,0.0007
3623.00,0.0010
3610.00,0.0013
3597.00,0.0013
3584.00,0.0016
3571.00,0.0018
3558.00,0.0020
3545.00,0.0024
3532.00,0.0026
3519.00,0.0029
3506.00,0.0031
3493.00,0.0032
3480.00,0.0034
3467.00,0.0036
3454.00,0.0039
3441.00,0.0041
3428.00,0.0043
3415.00,0.0047
3402.00,0.0052
3389.00,0.0053
3376.00,0.0048
3363.00,0.0043
3350.00,0.0039
3337.00,0.0036
3324.00,0.0032
3311.00,0.0033
3298.00,0.0033
3285.00,0.0033
3272.00,0.0035
3259.00,0.0036
3246.00,0.0037
3233.00,0.0038
3220.00,0.0039
3207.00,0.0038
3194.00,0.0035
3181.00,0.0032
3168.00,0.0028
3155.00,0.0025
3142.00,0.0022
3129.00,0.0019
3116.00,0.0017
3103.00,0.0015
3090.00,0.0015
3077.00,0.0014
3064.00,0.0013
3051.00,0.0013
3038.00,0.0013
3025.00,0.0012
3012.00,0.0013
2999.00,0.0021
2986.00,0.0024
2973.00,0.0033
2960.00,0.0044
2947.00,0.0044
2934.00,0.0059
2921.00,0.0064
2908.00,0.0047
2895.00,0.0039
2882.00,0.0036
2869.00,0.0038
2856.00,0.0051
2843.00,0.0033
2830.00,0.0021
2817.00,0.0016
2804.00,0.0014
2791.00,0.0013
2778.00,0.0012
2765.00,0.0011
2752.00,0.0012
2739.00,0.0012
2726.00,0.0012
2713.00,0.0012
2700.00,0.0012
2687.00,0.0011
2674.00,0.0011
2661.00,0.0014
2648.00,0.0016
2635.00,0.0016
2622.00,0.0014
2609.00,0.0013
2596.00,0.0012
2583.00,0.0012
2570.00,0.0010
2557.00,0.0010
2544.00,0.0010
2531.00,0.0009
2518.00,0.0009
2505.00,0.0007
2492.00,0.0008
2479.00,0.0007
2466.00,0.0007
2453.00,0.0009
2440.00,0.0007
2427.00,0.0006
2414.00,0.0006
2401.00,0.0004
2388.00,0.0004
2375.00,-0.0001
2362.00,-0.0001
2349.00,0.0001
2336.00,0.0005
2323.00,0.0015
2310.00,0.0007
2297.00,0.0011
2284.00,0.0017
2271.00,0.0015
2258.00,0.0011
2245.00,0.0010
2232.00,0.0010
2219.00,0.0011
2206.00,0.0011
2193.00,0.0011
2180.00,0.0010
2167.00,0.0020
2154.00,-0.0011
2141.00,-0.0007
2128.00,-0.0004
2115.00,0.0008
2102.00,0.0006
2089.00,0.0006
2076.00,0.0010
2063.00,0.0006
2050.00,0.0014
2037.00,0.0012
2024.00,-0.0001
2011.00,-0.0001
1998.00,0.0003
1985.00,0.0012
1972.00,-0.0003
1959.00,-0.0008
1946.00,-0.0002
1933.00,-0.0002
1920.00,0.0001
1907.00,0.0004
1894.00,0.0002
1881.00,0.0001
1868.00,0.0002
1855.00,0.0002
1842.00,0.0003
1829.00,0.0004
1816.00,0.0002
1803.00,0.0005
1790.00,0.0005
1777.00,0.0005
1764.00,0.0007
1751.00,0.0007
1738.00,0.0010
1725.00,0.0013
1712.00,0.0019
1699.00,0.0044
1686.00,0.0117
1673.00,0.0178
1660.00,0.0225
1647.00,0.0268
1634.00,0.0202
1621.00,0.0172
1608.00,0.0121
1595.00,0.0066
1582.00,0.0079
1569.00,0.0055
1556.00,0.0030
1543.00,0.0026
1530.00,0.0023
1517.00,0.0025
1504.00,0.0041
1491.00,0.0074
1478.00,0.0039
1465.00,0.0108
1452.00,0.0091
1439.00,0.0150
1426.00,0.0180
1413.00,0.0116
1400.00,0.0094
1387.00,0.0075
1374.00,0.0078
1361.00,0.0082
1348.00,0.0069
1335.00,0.0054
1322.00,0.0075
1309.00,0.0075
1296.00,0.0140
1283.00,0.0216
1270.00,0.0185
1257.00,0.0110
1244.00,0.0106
1231.00,0.0124
1218.00,0.0112
1205.00,0.0092
1192.00,0.0105
1179.00,0.0071
1166.00,0.0063
1153.00,0.0084
1140.00,0.0046
1127.00,0.0087
1114.00,0.0060
1101.00,0.0075
1088.00,0.0049
1075.00,0.0052
1062.00,0.0059
1049.00,0.0133
1036.00,0.0087
1023.00,0.0128
1010.00,0.0077
997.00,0.0079
984.00,0.0054
971.00,0.0046
958.00,0.0034
945.00,0.0017
932.00,0.0050
919.00,0.0049
906.00,0.0046
893.00,0.0051
880.00,0.0043
867.00,0.0081
854.00,0.0078
841.00,0.0080
828.00,0.0070
815.00,0.0098
802.00,0.0051
789.00,0.0051
776.00,0.0060
763.00,0.0067
750.00,0.0076
737.00,0.0105
724.00,0.0100
711.00,0.0099
698.00,0.0104
685.00,0.0109
672.00,0.0136
659.00,0.0149
646.00,0.0156
633.00,0.0144
620.00,0.0150
607.00,0.0151
594.00,0.0173
581.00,0.0175
568.00,0.0185
555.00,0.0190
542.00,0.0195
529.00,0.0188
516.00,0.0172
503.00,0.0173
490.00,0.0170
477.00,0.0170
464.00,0.0171
451.00,0.0175
438.00,0.0155
425.00,0.0143
412.00,0.0149
400.00,0.0129

File: 2025_08_06_1CBN_3PVP40_MP_Powder_Scan1.csv
Created as New Dataset,Sample 1085 By YargerLab Date Wednesday, August 06 2025
cm-1,A
4000.00,0.0117
3987.00,0.0116
3974.00,0.0117
3961.00,0.0116
3948.00,0.0116
3935.00,0.0116
3922.00,0.0116
3909.00,0.0116
3896.00,0.0115
3883.00,0.0114
3870.00,0.0115
3857.00,0.0115
3844.00,0.0115
3831.00,0.0114
3818.00,0.0113
3805.00,0.0113
3792.00,0.0114
3779.00,0.0113
3766.00,0.0113
3753.00,0.0113
3740.00,0.0113
3727.00,0.0111
3714.00,0.0111
3701.00,0.0111
3688.00,0.0112
3675.00,0.0114
3662.00,0.0118
3649.00,0.0121
3636.00,0.0127
3623.00,0.0136
3610.00,0.0146
3597.00,0.0157
3584.00,0.0173
3571.00,0.0189
3558.00,0.0207
3545.00,0.0224
3532.00,0.0237
3519.00,0.0251
3506.00,0.0261
3493.00,0.0273
3480.00,0.0288
3467.00,0.0306
3454.00,0.0324
3441.00,0.0345
3428.00,0.0370
3415.00,0.0399
3402.00,0.0415
3389.00,0.0404
3376.00,0.0379
3363.00,0.0356
3350.00,0.0338
3337.00,0.0329
3324.00,0.0327
3311.00,0.0328
3298.00,0.0335
3285.00,0.0345
3272.00,0.0349
3259.00,0.0359
3246.00,0.0363
3233.00,0.0361
3220.00,0.0354
3207.00,0.0338
3194.00,0.0314
3181.00,0.0292
3168.00,0.0269
3155.00,0.0247
3142.00,0.0227
3129.00,0.0213
3116.00,0.0202
3103.00,0.0189
3090.00,0.0186
3077.00,0.0182
3064.00,0.0179
3051.00,0.0179
3038.00,0.0181
3025.00,0.0180
3012.00,0.0180
2999.00,0.0224
2986.00,0.0301
2973.00,0.0410
2960.00,0.0514
2947.00,0.0444
2934.00,0.0593
2921.00,0.0664
2908.00,0.0477
2895.00,0.0398
2882.00,0.0371
2869.00,0.0411
2856.00,0.0523
2843.00,0.0341
2830.00,0.0246
2817.00,0.0209
2804.00,0.0193
2791.00,0.0181
2778.00,0.0173
2765.00,0.0169
2752.00,0.0168
2739.00,0.0170
2726.00,0.0173
2713.00,0.0168
2700.00,0.0165
2687.00,0.0162
2674.00,0.0160
2661.00,0.0166
2648.00,0.0167
2635.00,0.0163
2622.00,0.0158
2609.00,0.0156
2596.00,0.0158
2583.00,0.0159
2570.00,0.0156
2557.00,0.0154
2544.00,0.0151
2531.00,0.0150
2518.00,0.0147
2505.00,0.0145
2492.00,0.0143
2479.00,0.0142
2466.00,0.0140
2453.00,0.0142
2440.00,0.0139
2427.00,0.0139
2414.00,0.0139
2401.00,0.0137
2388.00,0.0136
2375.00,0.0132
2362.00,0.0132
2349.00,0.0134
2336.00,0.0138
2323.00,0.0150
2310.00,0.0138
2297.00,0.0142
2284.00,0.0146
2271.00,0.0139
2258.00,0.0136
2245.00,0.0135
2232.00,0.0136
2219.00,0.0134
2206.00,0.0135
2193.00,0.0135
2180.00,0.0133
2167.00,0.0143
2154.00,0.0107
2141.00,0.0116
2128.00,0.0120
2115.00,0.0132
2102.00,0.0127
2089.00,0.0129
2076.00,0.0130
2063.00,0.0125
2050.00,0.0129
2037.00,0.0124
2024.00,0.0117
2011.00,0.0115
1998.00,0.0112
1985.00,0.0124
1972.00,0.0109
1959.00,0.0108
1946.00,0.0116
1933.00,0.0113
1920.00,0.0118
1907.00,0.0129
1894.00,0.0124
1881.00,0.0117
1868.00,0.0120
1855.00,0.0118
1842.00,0.0119
1829.00,0.0118
1816.00,0.0114
1803.00,0.0121
1790.00,0.0119
1777.00,0.0125
1764.00,0.0125
1751.00,0.0134
1738.00,0.0136
1725.00,0.0162
1712.00,0.0207
1699.00,0.0355
1686.00,0.0735
1673.00,0.1169
1660.00,0.1442
1647.00,0.1452
1634.00,0.1097
1621.00,0.1223
1608.00,0.0849
1595.00,0.0512
1582.00,0.0705
1569.00,0.0472
1556.00,0.0301
1543.00,0.0270
1530.00,0.0247
1517.00,0.0275
1504.00,0.0362
1491.00,0.0550
1478.00,0.0325
1465.00,0.0776
1452.00,0.0679
1439.00,0.1005
1426.00,0.1293
1413.00,0.0928
1400.00,0.0862
1387.00,0.0653
1374.00,0.0639
1361.00,0.0731
1348.00,0.0563
1335.00,0.0466
1322.00,0.0578
1309.00,0.0565
1296.00,0.0948
1283.00,0.1423
1270.00,0.1187
1257.00,0.0786
1244.00,0.0758
1231.00,0.0931
1218.00,0.0781
1205.00,0.0634
1192.00,0.0822
1179.00,0.0523
1166.00,0.0533
1153.00,0.0765
1140.00,0.0428
1127.00,0.0837
1114.00,0.0511
1101.00,0.0625
1088.00,0.0416
1075.00,0.0427
1062.00,0.0548
1049.00,0.1049
1036.00,0.0628
1023.00,0.0857
1010.00,0.0500
997.00,0.0565
984.00,0.0397
971.00,0.0365
958.00,0.0341
945.00,0.0321
932.00,0.0416
919.00,0.0393
906.00,0.0325
893.00,0.0404
880.00,0.0352
867.00,0.0660
854.00,0.0585
841.00,0.0604
828.00,0.0568
815.00,0.0835
802.00,0.0366
789.00,0.0349
776.00,0.0404
763.00,0.0418
750.00,0.0480
737.00,0.0686
724.00,0.0613
711.00,0.0588
698.00,0.0629
685.00,0.0681
672.00,0.0809
659.00,0.0905
646.00,0.0931
633.00,0.0849
620.00,0.0893
607.00,0.0884
594.00,0.1020
581.00,0.1088
568.00,0.1106
555.00,0.1089
542.00,0.1095
529.00,0.1094
516.00,0.0944
503.00,0.0953
490.00,0.0968
477.00,0.0933
464.00,0.0911
451.00,0.0884
438.00,0.0858
425.00,0.0784
412.00,0.0816
400.00,0.0776

File: 2025_08_06_1CBN_3PVP40_MP_Powder_Scan2.csv
Created as New Dataset,Sample 1086 By YargerLab Date Wednesday, August 06 2025
cm-1,A
4000.00,0.0098
3987.00,0.0098
3974.00,0.0097
3961.00,0.0097
3948.00,0.0097
3935.00,0.0097
3922.00,0.0097
3909.00,0.0096
3896.00,0.0096
3883.00,0.0095
3870.00,0.0095
3857.00,0.0096
3844.00,0.0096
3831.00,0.0095
3818.00,0.0094
3805.00,0.0094
3792.00,0.0094
3779.00,0.0094
3766.00,0.0095
3753.00,0.0094
3740.00,0.0093
3727.00,0.0092
3714.00,0.0092
3701.00,0.0092
3688.00,0.0094
3675.00,0.0096
3662.00,0.0099
3649.00,0.0103
3636.00,0.0110
3623.00,0.0119
3610.00,0.0131
3597.00,0.0142
3584.00,0.0159
3571.00,0.0175
3558.00,0.0194
3545.00,0.0213
3532.00,0.0228
3519.00,0.0243
3506.00,0.0254
3493.00,0.0268
3480.00,0.0285
3467.00,0.0306
3454.00,0.0328
3441.00,0.0353
3428.00,0.0384
3415.00,0.0419
3402.00,0.0440
3389.00,0.0429
3376.00,0.0399
3363.00,0.0371
3350.00,0.0350
3337.00,0.0339
3324.00,0.0336
3311.00,0.0338
3298.00,0.0347
3285.00,0.0359
3272.00,0.0365
3259.00,0.0376
3246.00,0.0382
3233.00,0.0380
3220.00,0.0372
3207.00,0.0353
3194.00,0.0326
3181.00,0.0299
3168.00,0.0272
3155.00,0.0245
3142.00,0.0222
3129.00,0.0205
3116.00,0.0192
3103.00,0.0177
3090.00,0.0174
3077.00,0.0170
3064.00,0.0166
3051.00,0.0166
3038.00,0.0170
3025.00,0.0167
3012.00,0.0167
2999.00,0.0215
2986.00,0.0300
2973.00,0.0424
2960.00,0.0539
2947.00,0.0454
2934.00,0.0636
2921.00,0.0711
2908.00,0.0491
2895.00,0.0399
2882.00,0.0366
2869.00,0.0415
2856.00,0.0550
2843.00,0.0334
2830.00,0.0228
2817.00,0.0188
2804.00,0.0171
2791.00,0.0159
2778.00,0.0150
2765.00,0.0146
2752.00,0.0145
2739.00,0.0148
2726.00,0.0152
2713.00,0.0146
2700.00,0.0143
2687.00,0.0138
2674.00,0.0138
2661.00,0.0143
2648.00,0.0144
2635.00,0.0140
2622.00,0.0134
2609.00,0.0133
2596.00,0.0135
2583.00,0.0136
2570.00,0.0133
2557.00,0.0130
2544.00,0.0128
2531.00,0.0127
2518.00,0.0123
2505.00,0.0120
2492.00,0.0118
2479.00,0.0117
2466.00,0.0115
2453.00,0.0117
2440.00,0.0114
2427.00,0.0113
2414.00,0.0113
2401.00,0.0112
2388.00,0.0110
2375.00,0.0108
2362.00,0.0108
2349.00,0.0110
2336.00,0.0115
2323.00,0.0125
2310.00,0.0114
2297.00,0.0118
2284.00,0.0122
2271.00,0.0114
2258.00,0.0110
2245.00,0.0109
2232.00,0.0110
2219.00,0.0109
2206.00,0.0109
2193.00,0.0110
2180.00,0.0110
2167.00,0.0121
2154.00,0.0083
2141.00,0.0091
2128.00,0.0094
2115.00,0.0107
2102.00,0.0102
2089.00,0.0101
2076.00,0.0105
2063.00,0.0096
2050.00,0.0104
2037.00,0.0099
2024.00,0.0090
2011.00,0.0086
1998.00,0.0088
1985.00,0.0098
1972.00,0.0085
1959.00,0.0081
1946.00,0.0088
1933.00,0.0088
1920.00,0.0094
1907.00,0.0108
1894.00,0.0100
1881.00,0.0093
1868.00,0.0097
1855.00,0.0095
1842.00,0.0097
1829.00,0.0095
1816.00,0.0092
1803.00,0.0100
1790.00,0.0099
1777.00,0.0107
1764.00,0.0108
1751.00,0.0118
1738.00,0.0122
1725.00,0.0151
1712.00,0.0200
1699.00,0.0342
1686.00,0.0704
1673.00,0.1139
1660.00,0.1428
1647.00,0.1454
1634.00,0.1127
1621.00,0.1309
1608.00,0.0886
1595.00,0.0506
1582.00,0.0742
1569.00,0.0472
1556.00,0.0276
1543.00,0.0240
1530.00,0.0220
1517.00,0.0258
1504.00,0.0360
1491.00,0.0554
1478.00,0.0313
1465.00,0.0811
1452.00,0.0697
1439.00,0.1054
1426.00,0.1334
1413.00,0.0921
1400.00,0.0905
1387.00,0.0668
1374.00,0.0640
1361.00,0.0758
1348.00,0.0575
1335.00,0.0466
1322.00,0.0586
1309.00,0.0570
1296.00,0.0996
1283.00,0.1453
1270.00,0.1170
1257.00,0.0747
1244.00,0.0752
1231.00,0.0945
1218.00,0.0777
1205.00,0.0619
1192.00,0.0843
1179.00,0.0497
1166.00,0.0503
1153.00,0.0782
1140.00,0.0398
1127.00,0.0879
1114.00,0.0492
1101.00,0.0629
1088.00,0.0383
1075.00,0.0395
1062.00,0.0546
1049.00,0.1128
1036.00,0.0635
1023.00,0.0887
1010.00,0.0478
997.00,0.0549
984.00,0.0360
971.00,0.0327
958.00,0.0301
945.00,0.0282
932.00,0.0387
919.00,0.0361
906.00,0.0288
893.00,0.0376
880.00,0.0322
867.00,0.0671
854.00,0.0582
841.00,0.0591
828.00,0.0556
815.00,0.0868
802.00,0.0333
789.00,0.0319
776.00,0.0385
763.00,0.0402
750.00,0.0468
737.00,0.0701
724.00,0.0614
711.00,0.0593
698.00,0.0643
685.00,0.0699
672.00,0.0838
659.00,0.0932
646.00,0.0950
633.00,0.0863
620.00,0.0917
607.00,0.0912
594.00,0.1060
581.00,0.1126
568.00,0.1132
555.00,0.1123
542.00,0.1129
529.00,0.1128
516.00,0.0964
503.00,0.0968
490.00,0.0976
477.00,0.0943
464.00,0.0922
451.00,0.0893
438.00,0.0853
425.00,0.0784
412.00,0.0808
400.00,0.0771