Folder: Data/FTIR/Olivia (part 15)

File: 2025_08_01_1CBN_3PVP90_mortar_dry_scan2.csv
Created as New Dataset,Sample 1027 By YargerLab Date Friday, August 01 2025
cm-1,A
4000.00,0.0035
3987.00,0.0034
3974.00,0.0035
3961.00,0.0034
3948.00,0.0035
3935.00,0.0035
3922.00,0.0035
3909.00,0.0034
3896.00,0.0036
3883.00,0.0036
3870.00,0.0036
3857.00,0.0036
3844.00,0.0036
3831.00,0.0036
3818.00,0.0037
3805.00,0.0036
3792.00,0.0034
3779.00,0.0034
3766.00,0.0035
3753.00,0.0037
3740.00,0.0037
3727.00,0.0034
3714.00,0.0035
3701.00,0.0033
3688.00,0.0034
3675.00,0.0034
3662.00,0.0033
3649.00,0.0035
3636.00,0.0033
3623.00,0.0034
3610.00,0.0037
3597.00,0.0036
3584.00,0.0037
3571.00,0.0037
3558.00,0.0039
3545.00,0.0041
3532.00,0.0042
3519.00,0.0044
3506.00,0.0047
3493.00,0.0049
3480.00,0.0054
3467.00,0.0061
3454.00,0.0068
3441.00,0.0077
3428.00,0.0089
3415.00,0.0104
3402.00,0.0113
3389.00,0.0108
3376.00,0.0099
3363.00,0.0092
3350.00,0.0087
3337.00,0.0086
3324.00,0.0088
3311.00,0.0091
3298.00,0.0096
3285.00,0.0103
3272.00,0.0109
3259.00,0.0116
3246.00,0.0122
3233.00,0.0124
3220.00,0.0124
3207.00,0.0117
3194.00,0.0109
3181.00,0.0100
3168.00,0.0092
3155.00,0.0082
3142.00,0.0075
3129.00,0.0069
3116.00,0.0065
3103.00,0.0060
3090.00,0.0059
3077.00,0.0059
3064.00,0.0057
3051.00,0.0058
3038.00,0.0058
3025.00,0.0057
3012.00,0.0053
2999.00,0.0062
2986.00,0.0082
2973.00,0.0111
2960.00,0.0156
2947.00,0.0125
2934.00,0.0192
2921.00,0.0228
2908.00,0.0148
2895.00,0.0111
2882.00,0.0098
2869.00,0.0121
2856.00,0.0179
2843.00,0.0107
2830.00,0.0071
2817.00,0.0060
2804.00,0.0055
2791.00,0.0052
2778.00,0.0049
2765.00,0.0048
2752.00,0.0049
2739.00,0.0050
2726.00,0.0051
2713.00,0.0049
2700.00,0.0048
2687.00,0.0047
2674.00,0.0047
2661.00,0.0050
2648.00,0.0051
2635.00,0.0050
2622.00,0.0047
2609.00,0.0046
2596.00,0.0048
2583.00,0.0047
2570.00,0.0046
2557.00,0.0044
2544.00,0.0043
2531.00,0.0042
2518.00,0.0042
2505.00,0.0040
2492.00,0.0040
2479.00,0.0039
2466.00,0.0039
2453.00,0.0041
2440.00,0.0038
2427.00,0.0038
2414.00,0.0036
2401.00,0.0035
2388.00,0.0035
2375.00,0.0029
2362.00,0.0030
2349.00,0.0038
2336.00,0.0033
2323.00,0.0040
2310.00,0.0033
2297.00,0.0037
2284.00,0.0043
2271.00,0.0040
2258.00,0.0036
2245.00,0.0037
2232.00,0.0037
2219.00,0.0035
2206.00,0.0036
2193.00,0.0036
2180.00,0.0034
2167.00,0.0044
2154.00,0.0016
2141.00,0.0024
2128.00,0.0025
2115.00,0.0031
2102.00,0.0031
2089.00,0.0031
2076.00,0.0034
2063.00,0.0032
2050.00,0.0035
2037.00,0.0029
2024.00,0.0028
2011.00,0.0028
1998.00,0.0029
1985.00,0.0033
1972.00,0.0022
1959.00,0.0022
1946.00,0.0026
1933.00,0.0026
1920.00,0.0028
1907.00,0.0033
1894.00,0.0032
1881.00,0.0030
1868.00,0.0030
1855.00,0.0031
1842.00,0.0031
1829.00,0.0031
1816.00,0.0029
1803.00,0.0031
1790.00,0.0032
1777.00,0.0033
1764.00,0.0032
1751.00,0.0033
1738.00,0.0034
1725.00,0.0038
1712.00,0.0041
1699.00,0.0056
1686.00,0.0102
1673.00,0.0121
1660.00,0.0132
1647.00,0.0131
1634.00,0.0122
1621.00,0.0304
1608.00,0.0224
1595.00,0.0115
1582.00,0.0243
1569.00,0.0148
1556.00,0.0076
1543.00,0.0065
1530.00,0.0059
1517.00,0.0071
1504.00,0.0090
1491.00,0.0132
1478.00,0.0073
1465.00,0.0169
1452.00,0.0150
1439.00,0.0214
1426.00,0.0258
1413.00,0.0184
1400.00,0.0295
1387.00,0.0194
1374.00,0.0147
1361.00,0.0225
1348.00,0.0174
1335.00,0.0126
1322.00,0.0133
1309.00,0.0121
1296.00,0.0209
1283.00,0.0242
1270.00,0.0149
1257.00,0.0105
1244.00,0.0164
1231.00,0.0219
1218.00,0.0163
1205.00,0.0130
1192.00,0.0241
1179.00,0.0103
1166.00,0.0087
1153.00,0.0235
1140.00,0.0090
1127.00,0.0277
1114.00,0.0124
1101.00,0.0175
1088.00,0.0085
1075.00,0.0085
1062.00,0.0155
1049.00,0.0399
1036.00,0.0191
1023.00,0.0293
1010.00,0.0125
997.00,0.0154
984.00,0.0094
971.00,0.0085
958.00,0.0067
945.00,0.0051
932.00,0.0091
919.00,0.0097
906.00,0.0069
893.00,0.0095
880.00,0.0081
867.00,0.0227
854.00,0.0156
841.00,0.0141
828.00,0.0157
815.00,0.0285
802.00,0.0077
789.00,0.0069
776.00,0.0088
763.00,0.0080
750.00,0.0083
737.00,0.0150
724.00,0.0126
711.00,0.0121
698.00,0.0134
685.00,0.0139
672.00,0.0171
659.00,0.0166
646.00,0.0133
633.00,0.0125
620.00,0.0155
607.00,0.0151
594.00,0.0197
581.00,0.0190
568.00,0.0167
555.00,0.0184
542.00,0.0202
529.00,0.0206
516.00,0.0141
503.00,0.0142
490.00,0.0140
477.00,0.0126
464.00,0.0116
451.00,0.0106
438.00,0.0108
425.00,0.0103
412.00,0.0124
400.00,0.0093

File: 2025_08_01_1CBN_3PVP90_mortar_dry_scan3.csv
Created as New Dataset,Sample 1028 By YargerLab Date Friday, August 01 2025
cm-1,A
4000.00,0.0029
3987.00,0.0029
3974.00,0.0030
3961.00,0.0029
3948.00,0.0029
3935.00,0.0029
3922.00,0.0029
3909.00,0.0029
3896.00,0.0028
3883.00,0.0028
3870.00,0.0027
3857.00,0.0028
3844.00,0.0029
3831.00,0.0028
3818.00,0.0027
3805.00,0.0028
3792.00,0.0028
3779.00,0.0027
3766.00,0.0028
3753.00,0.0028
3740.00,0.0027
3727.00,0.0027
3714.00,0.0026
3701.00,0.0026
3688.00,0.0026
3675.00,0.0026
3662.00,0.0030
3649.00,0.0029
3636.00,0.0033
3623.00,0.0036
3610.00,0.0040
3597.00,0.0043
3584.00,0.0049
3571.00,0.0055
3558.00,0.0063
3545.00,0.0071
3532.00,0.0080
3519.00,0.0088
3506.00,0.0095
3493.00,0.0104
3480.00,0.0116
3467.00,0.0132
3454.00,0.0150
3441.00,0.0171
3428.00,0.0200
3415.00,0.0233
3402.00,0.0254
3389.00,0.0247
3376.00,0.0225
3363.00,0.0204
3350.00,0.0189
3337.00,0.0181
3324.00,0.0180
3311.00,0.0183
3298.00,0.0192
3285.00,0.0205
3272.00,0.0215
3259.00,0.0228
3246.00,0.0237
3233.00,0.0238
3220.00,0.0235
3207.00,0.0219
3194.00,0.0198
3181.00,0.0176
3168.00,0.0155
3155.00,0.0132
3142.00,0.0114
3129.00,0.0100
3116.00,0.0090
3103.00,0.0078
3090.00,0.0076
3077.00,0.0075
3064.00,0.0072
3051.00,0.0074
3038.00,0.0077
3025.00,0.0074
3012.00,0.0070
2999.00,0.0101
2986.00,0.0146
2973.00,0.0217
2960.00,0.0301
2947.00,0.0240
2934.00,0.0406
2921.00,0.0450
2908.00,0.0270
2895.00,0.0194
2882.00,0.0169
2869.00,0.0218
2856.00,0.0340
2843.00,0.0166
2830.00,0.0092
2817.00,0.0070
2804.00,0.0062
2791.00,0.0054
2778.00,0.0050
2765.00,0.0048
2752.00,0.0049
2739.00,0.0052
2726.00,0.0055
2713.00,0.0051
2700.00,0.0050
2687.00,0.0047
2674.00,0.0047
2661.00,0.0052
2648.00,0.0055
2635.00,0.0053
2622.00,0.0048
2609.00,0.0048
2596.00,0.0050
2583.00,0.0050
2570.00,0.0048
2557.00,0.0045
2544.00,0.0044
2531.00,0.0043
2518.00,0.0040
2505.00,0.0039
2492.00,0.0038
2479.00,0.0036
2466.00,0.0036
2453.00,0.0038
2440.00,0.0036
2427.00,0.0034
2414.00,0.0033
2401.00,0.0032
2388.00,0.0031
2375.00,0.0028
2362.00,0.0026
2349.00,0.0026
2336.00,0.0031
2323.00,0.0043
2310.00,0.0033
2297.00,0.0038
2284.00,0.0044
2271.00,0.0038
2258.00,0.0032
2245.00,0.0033
2232.00,0.0034
2219.00,0.0033
2206.00,0.0035
2193.00,0.0034
2180.00,0.0033
2167.00,0.0044
2154.00,0.0004
2141.00,0.0017
2128.00,0.0018
2115.00,0.0030
2102.00,0.0027
2089.00,0.0026
2076.00,0.0030
2063.00,0.0027
2050.00,0.0029
2037.00,0.0026
2024.00,0.0022
2011.00,0.0018
1998.00,0.0022
1985.00,0.0028
1972.00,0.0014
1959.00,0.0013
1946.00,0.0018
1933.00,0.0020
1920.00,0.0025
1907.00,0.0035
1894.00,0.0030
1881.00,0.0025
1868.00,0.0026
1855.00,0.0028
1842.00,0.0030
1829.00,0.0028
1816.00,0.0026
1803.00,0.0031
1790.00,0.0032
1777.00,0.0034
1764.00,0.0036
1751.00,0.0036
1738.00,0.0039
1725.00,0.0049
1712.00,0.0062
1699.00,0.0104
1686.00,0.0207
1673.00,0.0332
1660.00,0.0435
1647.00,0.0514
1634.00,0.0505
1621.00,0.0783
1608.00,0.0524
1595.00,0.0269
1582.00,0.0485
1569.00,0.0276
1556.00,0.0129
1543.00,0.0100
1530.00,0.0090
1517.00,0.0118
1504.00,0.0180
1491.00,0.0272
1478.00,0.0142
1465.00,0.0402
1452.00,0.0344
1439.00,0.0522
1426.00,0.0624
1413.00,0.0431
1400.00,0.0567
1387.00,0.0376
1374.00,0.0300
1361.00,0.0440
1348.00,0.0319
1335.00,0.0229
1322.00,0.0273
1309.00,0.0263
1296.00,0.0474
1283.00,0.0627
1270.00,0.0452
1257.00,0.0297
1244.00,0.0370
1231.00,0.0482
1218.00,0.0373
1205.00,0.0297
1192.00,0.0461
1179.00,0.0216
1166.00,0.0192
1153.00,0.0424
1140.00,0.0160
1127.00,0.0496
1114.00,0.0211
1101.00,0.0303
1088.00,0.0137
1075.00,0.0148
1062.00,0.0253
1049.00,0.0733
1036.00,0.0338
1023.00,0.0495
1010.00,0.0212
997.00,0.0247
984.00,0.0142
971.00,0.0128
958.00,0.0074
945.00,0.0068
932.00,0.0155
919.00,0.0155
906.00,0.0117
893.00,0.0170
880.00,0.0146
867.00,0.0378
854.00,0.0299
841.00,0.0277
828.00,0.0270
815.00,0.0479
802.00,0.0143
789.00,0.0144
776.00,0.0190
763.00,0.0199
750.00,0.0231
737.00,0.0372
724.00,0.0325
711.00,0.0323
698.00,0.0356
685.00,0.0375
672.00,0.0456
659.00,0.0484
646.00,0.0485
633.00,0.0465
620.00,0.0506
607.00,0.0511
594.00,0.0588
581.00,0.0604
568.00,0.0602
555.00,0.0613
542.00,0.0625
529.00,0.0618
516.00,0.0531
503.00,0.0536
490.00,0.0522
477.00,0.0500
464.00,0.0503
451.00,0.0496
438.00,0.0501
425.00,0.0483
412.00,0.0499
400.00,0.0457

File: 2025_08_01_Polystyrene_Std_scan1.csv
Created as New Dataset,Sample 1009 By YargerLab Date Thursday, July 31 2025
cm-1,A
4000.00,0.0010
3987.00,0.0010
3974.00,0.0010
3961.00,0.0010
3948.00,0.0010
3935.00,0.0010
3922.00,0.0010
3909.00,0.0010
3896.00,0.0010
3883.00,0.0009
3870.00,0.0009
3857.00,0.0009
3844.00,0.0011
3831.00,0.0009
3818.00,0.0008
3805.00,0.0010
3792.00,0.0010
3779.00,0.0011
3766.00,0.0010
3753.00,0.0010
3740.00,0.0009
3727.00,0.0009
3714.00,0.0009
3701.00,0.0010
3688.00,0.0008
3675.00,0.0009
3662.00,0.0010
3649.00,0.0009
3636.00,0.0010
3623.00,0.0009
3610.00,0.0009
3597.00,0.0010
3584.00,0.0009
3571.00,0.0011
3558.00,0.0011
3545.00,0.0011
3532.00,0.0012
3519.00,0.0013
3506.00,0.0013
3493.00,0.0013
3480.00,0.0013
3467.00,0.0014
3454.00,0.0014
3441.00,0.0014
3428.00,0.0014
3415.00,0.0014
3402.00,0.0014
3389.00,0.0014
3376.00,0.0015
3363.00,0.0014
3350.00,0.0014
3337.00,0.0014
3324.00,0.0015
3311.00,0.0014
3298.00,0.0014
3285.00,0.0014
3272.00,0.0014
3259.00,0.0014
3246.00,0.0013
3233.00,0.0013
3220.00,0.0012
3207.00,0.0013
3194.00,0.0013
3181.00,0.0012
3168.00,0.0012
3155.00,0.0013
3142.00,0.0012
3129.00,0.0013
3116.00,0.0014
3103.00,0.0021
3090.00,0.0025
3077.00,0.0035
3064.00,0.0046
3051.00,0.0038
3038.00,0.0038
3025.00,0.0099
3012.00,0.0033
2999.00,0.0032
2986.00,0.0020
2973.00,0.0023
2960.00,0.0029
2947.00,0.0046
2934.00,0.0087
2921.00,0.0122
2908.00,0.0096
2895.00,0.0060
2882.00,0.0043
2869.00,0.0036
2856.00,0.0049
2843.00,0.0050
2830.00,0.0021
2817.00,0.0017
2804.00,0.0016
2791.00,0.0015
2778.00,0.0014
2765.00,0.0013
2752.00,0.0013
2739.00,0.0013
2726.00,0.0013
2713.00,0.0013
2700.00,0.0013
2687.00,0.0013
2674.00,0.0013
2661.00,0.0016
2648.00,0.0017
2635.00,0.0018
2622.00,0.0016
2609.00,0.0015
2596.00,0.0015
2583.00,0.0015
2570.00,0.0013
2557.00,0.0012
2544.00,0.0012
2531.00,0.0011
2518.00,0.0011
2505.00,0.0010
2492.00,0.0011
2479.00,0.0011
2466.00,0.0011
2453.00,0.0011
2440.00,0.0010
2427.00,0.0009
2414.00,0.0008
2401.00,0.0007
2388.00,0.0007
2375.00,0.0006
2362.00,0.0006
2349.00,0.0008
2336.00,0.0011
2323.00,0.0021
2310.00,0.0014
2297.00,0.0015
2284.00,0.0018
2271.00,0.0014
2258.00,0.0014
2245.00,0.0012
2232.00,0.0011
2219.00,0.0010
2206.00,0.0011
2193.00,0.0010
2180.00,0.0007
2167.00,0.0023
2154.00,-0.0013
2141.00,-0.0005
2128.00,-0.0003
2115.00,0.0007
2102.00,0.0007
2089.00,0.0006
2076.00,0.0009
2063.00,0.0008
2050.00,0.0015
2037.00,0.0012
2024.00,-0.0000
2011.00,0.0003
1998.00,0.0004
1985.00,0.0014
1972.00,-0.0002
1959.00,0.0005
1946.00,0.0012
1933.00,0.0007
1920.00,0.0005
1907.00,0.0005
1894.00,0.0009
1881.00,0.0013
1868.00,0.0016
1855.00,0.0010
1842.00,0.0007
1829.00,0.0009
1816.00,0.0012
1803.00,0.0021
1790.00,0.0015
1777.00,0.0013
1764.00,0.0015
1751.00,0.0022
1738.00,0.0026
1725.00,0.0022
1712.00,0.0020
1699.00,0.0022
1686.00,0.0030
1673.00,0.0036
1660.00,0.0037
1647.00,0.0030
1634.00,0.0023
1621.00,0.0025
1608.00,0.0048
1595.00,0.0063
1582.00,0.0051
1569.00,0.0020
1556.00,0.0020
1543.00,0.0026
1530.00,0.0021
1517.00,0.0022
1504.00,0.0032
1491.00,0.0262
1478.00,0.0042
1465.00,0.0047
1452.00,0.0280
1439.00,0.0119
1426.00,0.0047
1413.00,0.0035
1400.00,0.0035
1387.00,0.0048
1374.00,0.0071
1361.00,0.0066
1348.00,0.0060
1335.00,0.0055
1322.00,0.0059
1309.00,0.0060
1296.00,0.0055
1283.00,0.0052
1270.00,0.0043
1257.00,0.0038
1244.00,0.0040
1231.00,0.0039
1218.00,0.0040
1205.00,0.0047
1192.00,0.0057
1179.00,0.0071
1166.00,0.0048
1153.00,0.0073
1140.00,0.0037
1127.00,0.0037
1114.00,0.0045
1101.00,0.0048
1088.00,0.0055
1075.00,0.0084
1062.00,0.0086
1049.00,0.0061
1036.00,0.0078
1023.00,0.0129
1010.00,0.0074
997.00,0.0062
984.00,0.0068
971.00,0.0068
958.00,0.0066
945.00,0.0063
932.00,0.0051
919.00,0.0057
906.00,0.0123
893.00,0.0052
880.00,0.0042
867.00,0.0037
854.00,0.0041
841.00,0.0069
828.00,0.0038
815.00,0.0038
802.00,0.0040
789.00,0.0068
776.00,0.0155
763.00,0.0391
750.00,0.0515
737.00,0.0230
724.00,0.0071
711.00,0.0141
698.00,0.1372
685.00,0.0570
672.00,0.0258
659.00,0.0160
646.00,0.0103
633.00,0.0111
620.00,0.0130
607.00,0.0103
594.00,0.0112
581.00,0.0144
568.00,0.0231
555.00,0.0331
542.00,0.0522
529.00,0.0391
516.00,0.0208
503.00,0.0142
490.00,0.0112
477.00,0.0100
464.00,0.0096
451.00,0.0089
438.00,0.0092
425.00,0.0073
412.00,0.0086
400.00,0.0078

File: 2025_08_01_Polystyrene_Std_scan2.csv
Created as New Dataset,Sample 1010 By YargerLab Date Friday, August 01 2025
cm-1,A
4000.00,0.0004
3987.00,0.0004
3974.00,0.0004
3961.00,0.0004
3948.00,0.0004
3935.00,0.0004
3922.00,0.0004
3909.00,0.0003
3896.00,0.0003
3883.00,0.0002
3870.00,0.0002
3857.00,0.0002
3844.00,0.0003
3831.00,0.0003
3818.00,0.0002
3805.00,0.0002
3792.00,0.0004
3779.00,0.0004
3766.00,0.0003
3753.00,0.0001
3740.00,0.0001
3727.00,0.0002
3714.00,0.0002
3701.00,0.0003
3688.00,0.0001
3675.00,0.0000
3662.00,0.0004
3649.00,0.0000
3636.00,0.0002
3623.00,0.0002
3610.00,0.0001
3597.00,0.0002
3584.00,0.0002
3571.00,0.0003
3558.00,0.0004
3545.00,0.0003
3532.00,0.0004
3519.00,0.0004
3506.00,0.0004
3493.00,0.0004
3480.00,0.0005
3467.00,0.0006
3454.00,0.0005
3441.00,0.0005
3428.00,0.0005
3415.00,0.0005
3402.00,0.0005
3389.00,0.0005
3376.00,0.0005
3363.00,0.0005
3350.00,0.0005
3337.00,0.0005
3324.00,0.0006
3311.00,0.0005
3298.00,0.0005
3285.00,0.0004
3272.00,0.0005
3259.00,0.0005
3246.00,0.0005
3233.00,0.0004
3220.00,0.0003
3207.00,0.0005
3194.00,0.0004
3181.00,0.0004
3168.00,0.0004
3155.00,0.0004
3142.00,0.0004
3129.00,0.0005
3116.00,0.0006
3103.00,0.0014
3090.00,0.0019
3077.00,0.0031
3064.00,0.0043
3051.00,0.0033
3038.00,0.0034
3025.00,0.0102
3012.00,0.0027
2999.00,0.0026
2986.00,0.0012
2973.00,0.0013
2960.00,0.0019
2947.00,0.0038
2934.00,0.0080
2921.00,0.0116
2908.00,0.0089
2895.00,0.0051
2882.00,0.0034
2869.00,0.0026
2856.00,0.0039
2843.00,0.0041
2830.00,0.0011
2817.00,0.0008
2804.00,0.0007
2791.00,0.0006
2778.00,0.0006
2765.00,0.0005
2752.00,0.0005
2739.00,0.0004
2726.00,0.0005
2713.00,0.0005
2700.00,0.0005
2687.00,0.0005
2674.00,0.0005
2661.00,0.0008
2648.00,0.0009
2635.00,0.0010
2622.00,0.0009
2609.00,0.0008
2596.00,0.0007
2583.00,0.0007
2570.00,0.0004
2557.00,0.0004
2544.00,0.0005
2531.00,0.0002
2518.00,0.0003
2505.00,0.0003
2492.00,0.0003
2479.00,0.0002
2466.00,0.0002
2453.00,0.0003
2440.00,0.0002
2427.00,0.0001
2414.00,0.0000
2401.00,-0.0001
2388.00,-0.0002
2375.00,-0.0002
2362.00,-0.0001
2349.00,0.0001
2336.00,0.0003
2323.00,0.0014
2310.00,0.0007
2297.00,0.0008
2284.00,0.0010
2271.00,0.0007
2258.00,0.0005
2245.00,0.0004
2232.00,0.0003
2219.00,0.0004
2206.00,0.0003
2193.00,0.0004
2180.00,-0.0002
2167.00,0.0009
2154.00,-0.0023
2141.00,-0.0012
2128.00,-0.0011
2115.00,-0.0000
2102.00,-0.0001
2089.00,-0.0002
2076.00,0.0000
2063.00,0.0000
2050.00,0.0007
2037.00,0.0002
2024.00,-0.0010
2011.00,-0.0005
1998.00,-0.0005
1985.00,0.0004
1972.00,-0.0011
1959.00,-0.0004
1946.00,0.0004
1933.00,-0.0002
1920.00,-0.0005
1907.00,-0.0003
1894.00,-0.0001
1881.00,0.0005
1868.00,0.0008
1855.00,0.0001
1842.00,-0.0002
1829.00,-0.0001
1816.00,0.0003
1803.00,0.0011
1790.00,0.0005
1777.00,0.0003
1764.00,0.0005
1751.00,0.0010
1738.00,0.0012
1725.00,0.0008
1712.00,0.0007
1699.00,0.0007
1686.00,0.0009
1673.00,0.0013
1660.00,0.0014
1647.00,0.0010
1634.00,0.0008
1621.00,0.0010
1608.00,0.0036
1595.00,0.0051
1582.00,0.0039
1569.00,0.0008
1556.00,0.0007
1543.00,0.0013
1530.00,0.0009
1517.00,0.0008
1504.00,0.0020
1491.00,0.0249
1478.00,0.0027
1465.00,0.0028
1452.00,0.0259
1439.00,0.0096
1426.00,0.0024
1413.00,0.0017
1400.00,0.0017
1387.00,0.0032
1374.00,0.0053
1361.00,0.0049
1348.00,0.0044
1335.00,0.0039
1322.00,0.0042
1309.00,0.0044
1296.00,0.0036
1283.00,0.0032
1270.00,0.0024
1257.00,0.0021
1244.00,0.0022
1231.00,0.0022
1218.00,0.0022
1205.00,0.0031
1192.00,0.0040
1179.00,0.0052
1166.00,0.0029
1153.00,0.0054
1140.00,0.0020
1127.00,0.0018
1114.00,0.0027
1101.00,0.0029
1088.00,0.0037
1075.00,0.0066
1062.00,0.0065
1049.00,0.0041
1036.00,0.0059
1023.00,0.0107
1010.00,0.0053
997.00,0.0043
984.00,0.0050
971.00,0.0051
958.00,0.0048
945.00,0.0046
932.00,0.0034
919.00,0.0039
906.00,0.0101
893.00,0.0033
880.00,0.0023
867.00,0.0018
854.00,0.0024
841.00,0.0050
828.00,0.0020
815.00,0.0020
802.00,0.0024
789.00,0.0051
776.00,0.0131
763.00,0.0341
750.00,0.0443
737.00,0.0189
724.00,0.0051
711.00,0.0119
698.00,0.1133
685.00,0.0457
672.00,0.0197
659.00,0.0114
646.00,0.0067
633.00,0.0075
620.00,0.0092
607.00,0.0067
594.00,0.0077
581.00,0.0105
568.00,0.0184
555.00,0.0271
542.00,0.0434
529.00,0.0318
516.00,0.0155
503.00,0.0100
490.00,0.0075
477.00,0.0069
464.00,0.0062
451.00,0.0053
438.00,0.0054
425.00,0.0046
412.00,0.0044
400.00,0.0026

File: 2025_08_01_Polystyrene_Std_scan3.csv
Created as New Dataset,Sample 1011 By YargerLab Date Friday, August 01 2025
cm-1,A
4000.00,0.0005
3987.00,0.0005
3974.00,0.0005
3961.00,0.0005
3948.00,0.0005
3935.00,0.0005
3922.00,0.0005
3909.00,0.0005
3896.00,0.0005
3883.00,0.0005
3870.00,0.0004
3857.00,0.0005
3844.00,0.0005
3831.00,0.0005
3818.00,0.0004
3805.00,0.0006
3792.00,0.0006
3779.00,0.0006
3766.00,0.0005
3753.00,0.0004
3740.00,0.0004
3727.00,0.0004
3714.00,0.0004
3701.00,0.0005
3688.00,0.0004
3675.00,0.0004
3662.00,0.0005
3649.00,0.0004
3636.00,0.0005
3623.00,0.0004
3610.00,0.0004
3597.00,0.0005
3584.00,0.0005
3571.00,0.0006
3558.00,0.0006
3545.00,0.0006
3532.00,0.0007
3519.00,0.0008
3506.00,0.0008
3493.00,0.0009
3480.00,0.0009
3467.00,0.0010
3454.00,0.0010
3441.00,0.0010
3428.00,0.0010
3415.00,0.0010
3402.00,0.0011
3389.00,0.0011
3376.00,0.0011
3363.00,0.0011
3350.00,0.0011
3337.00,0.0010
3324.00,0.0011
3311.00,0.0010
3298.00,0.0010
3285.00,0.0010
3272.00,0.0011
3259.00,0.0010
3246.00,0.0009
3233.00,0.0009
3220.00,0.0008
3207.00,0.0009
3194.00,0.0009
3181.00,0.0007
3168.00,0.0008
3155.00,0.0008
3142.00,0.0007
3129.00,0.0008
3116.00,0.0010
3103.00,0.0021
3090.00,0.0028
3077.00,0.0043
3064.00,0.0060
3051.00,0.0046
3038.00,0.0048
3025.00,0.0140
3012.00,0.0038
2999.00,0.0036
2986.00,0.0018
2973.00,0.0019
2960.00,0.0026
2947.00,0.0053
2934.00,0.0111
2921.00,0.0160
2908.00,0.0125
2895.00,0.0073
2882.00,0.0050
2869.00,0.0038
2856.00,0.0056
2843.00,0.0058
2830.00,0.0018
2817.00,0.0014
2804.00,0.0012
2791.00,0.0010
2778.00,0.0010
2765.00,0.0009
2752.00,0.0008
2739.00,0.0008
2726.00,0.0008
2713.00,0.0008
2700.00,0.0008
2687.00,0.0008
2674.00,0.0009
2661.00,0.0012
2648.00,0.0013
2635.00,0.0014
2622.00,0.0012
2609.00,0.0011
2596.00,0.0010
2583.00,0.0010
2570.00,0.0008
2557.00,0.0007
2544.00,0.0007
2531.00,0.0006
2518.00,0.0006
2505.00,0.0006
2492.00,0.0006
2479.00,0.0005
2466.00,0.0004
2453.00,0.0006
2440.00,0.0004
2427.00,0.0003
2414.00,0.0003
2401.00,0.0002
2388.00,0.0001
2375.00,0.0000
2362.00,0.0002
2349.00,0.0003
2336.00,0.0007
2323.00,0.0017
2310.00,0.0010
2297.00,0.0010
2284.00,0.0013
2271.00,0.0009
2258.00,0.0009
2245.00,0.0005
2232.00,0.0006
2219.00,0.0006
2206.00,0.0003
2193.00,0.0005
2180.00,-0.0001
2167.00,0.0015
2154.00,-0.0022
2141.00,-0.0012
2128.00,-0.0011
2115.00,0.0001
2102.00,0.0001
2089.00,0.0001
2076.00,0.0003
2063.00,0.0001
2050.00,0.0011
2037.00,0.0003
2024.00,-0.0008
2011.00,-0.0005
1998.00,-0.0003
1985.00,0.0008
1972.00,-0.0007
1959.00,-0.0002
1946.00,0.0011
1933.00,0.0003
1920.00,-0.0002
1907.00,-0.0001
1894.00,0.0004
1881.00,0.0011
1868.00,0.0014
1855.00,0.0004
1842.00,0.0001
1829.00,0.0003
1816.00,0.0008
1803.00,0.0019
1790.00,0.0010
1777.00,0.0007
1764.00,0.0010
1751.00,0.0018
1738.00,0.0019
1725.00,0.0014
1712.00,0.0012
1699.00,0.0013
1686.00,0.0017
1673.00,0.0022
1660.00,0.0021
1647.00,0.0016
1634.00,0.0013
1621.00,0.0017
1608.00,0.0055
1595.00,0.0074
1582.00,0.0057
1569.00,0.0013
1556.00,0.0013
1543.00,0.0021
1530.00,0.0015
1517.00,0.0015
1504.00,0.0030
1491.00,0.0349
1478.00,0.0041
1465.00,0.0042
1452.00,0.0374
1439.00,0.0140
1426.00,0.0040
1413.00,0.0028
1400.00,0.0028
1387.00,0.0050
1374.00,0.0080
1361.00,0.0075
1348.00,0.0067
1335.00,0.0060
1322.00,0.0065
1309.00,0.0066
1296.00,0.0054
1283.00,0.0049
1270.00,0.0038
1257.00,0.0034
1244.00,0.0035
1231.00,0.0034
1218.00,0.0035
1205.00,0.0045
1192.00,0.0058
1179.00,0.0076
1166.00,0.0046
1153.00,0.0081
1140.00,0.0033
1127.00,0.0030
1114.00,0.0046
1101.00,0.0049
1088.00,0.0060
1075.00,0.0100
1062.00,0.0100
1049.00,0.0068
1036.00,0.0095
1023.00,0.0162
1010.00,0.0088
997.00,0.0072
984.00,0.0080
971.00,0.0079
958.00,0.0074
945.00,0.0071
932.00,0.0053
919.00,0.0061
906.00,0.0147
893.00,0.0055
880.00,0.0038
867.00,0.0032
854.00,0.0038
841.00,0.0075
828.00,0.0034
815.00,0.0034
802.00,0.0040
789.00,0.0076
776.00,0.0190
763.00,0.0493
750.00,0.0640
737.00,0.0276
724.00,0.0079
711.00,0.0175
698.00,0.1719
685.00,0.0650
672.00,0.0288
659.00,0.0175
646.00,0.0108
633.00,0.0122
620.00,0.0146
607.00,0.0114
594.00,0.0127
581.00,0.0167
568.00,0.0275
555.00,0.0393
542.00,0.0624
529.00,0.0454
516.00,0.0236
503.00,0.0155
490.00,0.0118
477.00,0.0104
464.00,0.0097
451.00,0.0087
438.00,0.0088
425.00,0.0082
412.00,0.0068
400.00,0.0065

File: 2025_08_04_1CBN_3PVP10kDa_MC_powder_scan1.csv
Created as New Dataset,Sample 1042 By YargerLab Date Monday, August 04 2025
cm-1,A
4000.00,0.0045
3987.00,0.0045
3974.00,0.0045
3961.00,0.0046
3948.00,0.0045
3935.00,0.0046
3922.00,0.0046
3909.00,0.0046
3896.00,0.0047
3883.00,0.0048
3870.00,0.0048
3857.00,0.0048
3844.00,0.0047
3831.00,0.0048
3818.00,0.0048
3805.00,0.0049
3792.00,0.0046
3779.00,0.0046
3766.00,0.0047
3753.00,0.0050
3740.00,0.0049
3727.00,0.0046
3714.00,0.0048
3701.00,0.0045
3688.00,0.0049
3675.00,0.0051
3662.00,0.0048
3649.00,0.0054
3636.00,0.0054
3623.00,0.0059
3610.00,0.0065
3597.00,0.0070
3584.00,0.0078
3571.00,0.0087
3558.00,0.0096
3545.00,0.0105
3532.00,0.0113
3519.00,0.0120
3506.00,0.0126
3493.00,0.0131
3480.00,0.0137
3467.00,0.0145
3454.00,0.0152
3441.00,0.0160
3428.00,0.0169
3415.00,0.0180
3402.00,0.0185
3389.00,0.0183
3376.00,0.0175
3363.00,0.0166
3350.00,0.0159
3337.00,0.0153
3324.00,0.0152
3311.00,0.0151
3298.00,0.0152
3285.00,0.0155
3272.00,0.0154
3259.00,0.0156
3246.00,0.0157
3233.00,0.0154
3220.00,0.0150
3207.00,0.0143
3194.00,0.0133
3181.00,0.0125
3168.00,0.0116
3155.00,0.0106
3142.00,0.0098
3129.00,0.0092
3116.00,0.0087
3103.00,0.0082
3090.00,0.0080
3077.00,0.0078
3064.00,0.0075
3051.00,0.0075
3038.00,0.0075
3025.00,0.0074
3012.00,0.0075
2999.00,0.0093
2986.00,0.0126
2973.00,0.0168
2960.00,0.0205
2947.00,0.0184
2934.00,0.0234
2921.00,0.0252
2908.00,0.0186
2895.00,0.0159
2882.00,0.0151
2869.00,0.0166
2856.00,0.0197
2843.00,0.0129
2830.00,0.0095
2817.00,0.0081
2804.00,0.0075
2791.00,0.0070
2778.00,0.0068
2765.00,0.0066
2752.00,0.0066
2739.00,0.0066
2726.00,0.0067
2713.00,0.0065
2700.00,0.0064
2687.00,0.0063
2674.00,0.0062
2661.00,0.0067
2648.00,0.0068
2635.00,0.0067
2622.00,0.0065
2609.00,0.0064
2596.00,0.0064
2583.00,0.0064
2570.00,0.0063
2557.00,0.0062
2544.00,0.0061
2531.00,0.0060
2518.00,0.0058
2505.00,0.0057
2492.00,0.0056
2479.00,0.0056
2466.00,0.0055
2453.00,0.0057
2440.00,0.0056
2427.00,0.0054
2414.00,0.0054
2401.00,0.0053
2388.00,0.0052
2375.00,0.0050
2362.00,0.0049
2349.00,0.0050
2336.00,0.0054
2323.00,0.0063
2310.00,0.0054
2297.00,0.0059
2284.00,0.0064
2271.00,0.0059
2258.00,0.0057
2245.00,0.0057
2232.00,0.0057
2219.00,0.0058
2206.00,0.0057
2193.00,0.0057
2180.00,0.0053
2167.00,0.0066
2154.00,0.0031
2141.00,0.0039
2128.00,0.0044
2115.00,0.0056
2102.00,0.0053
2089.00,0.0051
2076.00,0.0053
2063.00,0.0054
2050.00,0.0062
2037.00,0.0052
2024.00,0.0043
2011.00,0.0041
1998.00,0.0049
1985.00,0.0049
1972.00,0.0038
1959.00,0.0032
1946.00,0.0039
1933.00,0.0039
1920.00,0.0042
1907.00,0.0047
1894.00,0.0047
1881.00,0.0044
1868.00,0.0045
1855.00,0.0046
1842.00,0.0045
1829.00,0.0044
1816.00,0.0042
1803.00,0.0045
1790.00,0.0045
1777.00,0.0047
1764.00,0.0048
1751.00,0.0050
1738.00,0.0053
1725.00,0.0062
1712.00,0.0077
1699.00,0.0144
1686.00,0.0352
1673.00,0.0583
1660.00,0.0745
1647.00,0.0752
1634.00,0.0543
1621.00,0.0521
1608.00,0.0362
1595.00,0.0221
1582.00,0.0283
1569.00,0.0187
1556.00,0.0121
1543.00,0.0109
1530.00,0.0101
1517.00,0.0110
1504.00,0.0153
1491.00,0.0236
1478.00,0.0145
1465.00,0.0347
1452.00,0.0301
1439.00,0.0458
1426.00,0.0550
1413.00,0.0383
1400.00,0.0340
1387.00,0.0260
1374.00,0.0269
1361.00,0.0290
1348.00,0.0220
1335.00,0.0190
1322.00,0.0252
1309.00,0.0247
1296.00,0.0421
1283.00,0.0619
1270.00,0.0536
1257.00,0.0338
1244.00,0.0315
1231.00,0.0378
1218.00,0.0339
1205.00,0.0280
1192.00,0.0328
1179.00,0.0229
1166.00,0.0239
1153.00,0.0317
1140.00,0.0189
1127.00,0.0326
1114.00,0.0206
1101.00,0.0245
1088.00,0.0175
1075.00,0.0179
1062.00,0.0229
1049.00,0.0397
1036.00,0.0239
1023.00,0.0312
1010.00,0.0198
997.00,0.0215
984.00,0.0160
971.00,0.0147
958.00,0.0141
945.00,0.0135
932.00,0.0175
919.00,0.0162
906.00,0.0144
893.00,0.0171
880.00,0.0150
867.00,0.0254
854.00,0.0240
841.00,0.0252
828.00,0.0230
815.00,0.0311
802.00,0.0161
789.00,0.0160
776.00,0.0185
763.00,0.0198
750.00,0.0235
737.00,0.0317
724.00,0.0284
711.00,0.0272
698.00,0.0292
685.00,0.0321
672.00,0.0374
659.00,0.0428
646.00,0.0462
633.00,0.0425
620.00,0.0429
607.00,0.0432
594.00,0.0479
581.00,0.0528
568.00,0.0537
555.00,0.0522
542.00,0.0515
529.00,0.0512
516.00,0.0469
503.00,0.0477
490.00,0.0477
477.00,0.0477
464.00,0.0463
451.00,0.0447
438.00,0.0435
425.00,0.0419
412.00,0.0401
400.00,0.0415