Folder: Data/FTIR/Olivia (part 24)

File: 2025_08_12_Polystyrene_film_scan1.csv
Created as New Dataset,Sample 038 By YargerLab Date Tuesday, August 12 2025
cm-1,A
4000.00,0.0003
3987.00,0.0003
3974.00,0.0002
3961.00,0.0002
3948.00,0.0002
3935.00,0.0002
3922.00,0.0003
3909.00,0.0003
3896.00,0.0002
3883.00,0.0002
3870.00,0.0001
3857.00,0.0002
3844.00,0.0002
3831.00,0.0002
3818.00,0.0001
3805.00,0.0003
3792.00,0.0002
3779.00,0.0002
3766.00,0.0002
3753.00,0.0003
3740.00,0.0001
3727.00,0.0001
3714.00,0.0002
3701.00,0.0001
3688.00,0.0001
3675.00,0.0000
3662.00,0.0002
3649.00,0.0001
3636.00,0.0002
3623.00,0.0001
3610.00,0.0000
3597.00,0.0001
3584.00,0.0001
3571.00,0.0002
3558.00,0.0002
3545.00,0.0002
3532.00,0.0003
3519.00,0.0003
3506.00,0.0003
3493.00,0.0003
3480.00,0.0003
3467.00,0.0003
3454.00,0.0003
3441.00,0.0003
3428.00,0.0003
3415.00,0.0003
3402.00,0.0004
3389.00,0.0004
3376.00,0.0003
3363.00,0.0003
3350.00,0.0004
3337.00,0.0004
3324.00,0.0004
3311.00,0.0004
3298.00,0.0005
3285.00,0.0004
3272.00,0.0004
3259.00,0.0004
3246.00,0.0004
3233.00,0.0004
3220.00,0.0003
3207.00,0.0004
3194.00,0.0003
3181.00,0.0003
3168.00,0.0003
3155.00,0.0003
3142.00,0.0003
3129.00,0.0003
3116.00,0.0004
3103.00,0.0010
3090.00,0.0014
3077.00,0.0022
3064.00,0.0031
3051.00,0.0024
3038.00,0.0024
3025.00,0.0074
3012.00,0.0020
2999.00,0.0019
2986.00,0.0009
2973.00,0.0010
2960.00,0.0015
2947.00,0.0030
2934.00,0.0062
2921.00,0.0089
2908.00,0.0068
2895.00,0.0038
2882.00,0.0027
2869.00,0.0020
2856.00,0.0032
2843.00,0.0032
2830.00,0.0010
2817.00,0.0007
2804.00,0.0006
2791.00,0.0005
2778.00,0.0005
2765.00,0.0004
2752.00,0.0004
2739.00,0.0004
2726.00,0.0004
2713.00,0.0004
2700.00,0.0004
2687.00,0.0004
2674.00,0.0004
2661.00,0.0006
2648.00,0.0008
2635.00,0.0008
2622.00,0.0007
2609.00,0.0006
2596.00,0.0005
2583.00,0.0005
2570.00,0.0004
2557.00,0.0004
2544.00,0.0003
2531.00,0.0002
2518.00,0.0003
2505.00,0.0002
2492.00,0.0002
2479.00,0.0002
2466.00,0.0002
2453.00,0.0003
2440.00,0.0001
2427.00,0.0000
2414.00,0.0000
2401.00,-0.0001
2388.00,-0.0002
2375.00,-0.0005
2362.00,-0.0006
2349.00,-0.0004
2336.00,-0.0001
2323.00,0.0008
2310.00,0.0002
2297.00,0.0005
2284.00,0.0011
2271.00,0.0006
2258.00,0.0004
2245.00,0.0003
2232.00,0.0004
2219.00,0.0003
2206.00,0.0002
2193.00,0.0002
2180.00,-0.0004
2167.00,0.0009
2154.00,-0.0017
2141.00,-0.0013
2128.00,-0.0010
2115.00,-0.0001
2102.00,-0.0001
2089.00,-0.0000
2076.00,0.0002
2063.00,-0.0002
2050.00,0.0009
2037.00,0.0001
2024.00,-0.0006
2011.00,-0.0005
1998.00,-0.0004
1985.00,0.0003
1972.00,-0.0004
1959.00,-0.0005
1946.00,0.0005
1933.00,-0.0001
1920.00,-0.0001
1907.00,-0.0003
1894.00,0.0001
1881.00,0.0005
1868.00,0.0006
1855.00,0.0001
1842.00,-0.0001
1829.00,0.0001
1816.00,0.0003
1803.00,0.0010
1790.00,0.0005
1777.00,0.0003
1764.00,0.0005
1751.00,0.0011
1738.00,0.0013
1725.00,0.0009
1712.00,0.0007
1699.00,0.0007
1686.00,0.0009
1673.00,0.0012
1660.00,0.0012
1647.00,0.0008
1634.00,0.0007
1621.00,0.0011
1608.00,0.0032
1595.00,0.0045
1582.00,0.0036
1569.00,0.0009
1556.00,0.0008
1543.00,0.0014
1530.00,0.0010
1517.00,0.0009
1504.00,0.0018
1491.00,0.0218
1478.00,0.0026
1465.00,0.0027
1452.00,0.0232
1439.00,0.0088
1426.00,0.0026
1413.00,0.0018
1400.00,0.0019
1387.00,0.0031
1374.00,0.0049
1361.00,0.0047
1348.00,0.0041
1335.00,0.0038
1322.00,0.0040
1309.00,0.0042
1296.00,0.0035
1283.00,0.0032
1270.00,0.0024
1257.00,0.0021
1244.00,0.0023
1231.00,0.0023
1218.00,0.0024
1205.00,0.0030
1192.00,0.0040
1179.00,0.0050
1166.00,0.0030
1153.00,0.0054
1140.00,0.0021
1127.00,0.0021
1114.00,0.0029
1101.00,0.0031
1088.00,0.0037
1075.00,0.0063
1062.00,0.0064
1049.00,0.0044
1036.00,0.0057
1023.00,0.0101
1010.00,0.0053
997.00,0.0043
984.00,0.0050
971.00,0.0049
958.00,0.0047
945.00,0.0047
932.00,0.0033
919.00,0.0040
906.00,0.0101
893.00,0.0036
880.00,0.0025
867.00,0.0022
854.00,0.0024
841.00,0.0050
828.00,0.0021
815.00,0.0021
802.00,0.0025
789.00,0.0050
776.00,0.0126
763.00,0.0336
750.00,0.0445
737.00,0.0191
724.00,0.0051
711.00,0.0113
698.00,0.1156
685.00,0.0489
672.00,0.0209
659.00,0.0120
646.00,0.0073
633.00,0.0082
620.00,0.0100
607.00,0.0075
594.00,0.0085
581.00,0.0114
568.00,0.0191
555.00,0.0272
542.00,0.0443
529.00,0.0332
516.00,0.0161
503.00,0.0107
490.00,0.0089
477.00,0.0072
464.00,0.0069
451.00,0.0058
438.00,0.0059
425.00,0.0049
412.00,0.0034
400.00,0.0073

File: 2025_08_12_Polystyrene_film_scan2.csv
Created as New Dataset,Sample 039 By YargerLab Date Tuesday, August 12 2025
cm-1,A
4000.00,0.0000
3987.00,-0.0000
3974.00,-0.0000
3961.00,-0.0001
3948.00,-0.0001
3935.00,-0.0000
3922.00,-0.0001
3909.00,-0.0000
3896.00,-0.0001
3883.00,-0.0003
3870.00,-0.0002
3857.00,-0.0002
3844.00,-0.0001
3831.00,-0.0001
3818.00,-0.0002
3805.00,-0.0001
3792.00,-0.0000
3779.00,-0.0000
3766.00,-0.0000
3753.00,-0.0001
3740.00,-0.0003
3727.00,-0.0002
3714.00,-0.0002
3701.00,-0.0001
3688.00,-0.0002
3675.00,-0.0003
3662.00,-0.0000
3649.00,-0.0004
3636.00,-0.0002
3623.00,-0.0002
3610.00,-0.0003
3597.00,-0.0002
3584.00,-0.0003
3571.00,-0.0001
3558.00,-0.0001
3545.00,-0.0001
3532.00,-0.0000
3519.00,0.0000
3506.00,-0.0001
3493.00,-0.0000
3480.00,0.0000
3467.00,0.0001
3454.00,0.0000
3441.00,0.0001
3428.00,0.0001
3415.00,0.0001
3402.00,0.0001
3389.00,0.0001
3376.00,0.0001
3363.00,0.0002
3350.00,0.0001
3337.00,0.0002
3324.00,0.0002
3311.00,0.0002
3298.00,0.0003
3285.00,0.0002
3272.00,0.0002
3259.00,0.0002
3246.00,0.0002
3233.00,0.0002
3220.00,0.0001
3207.00,0.0002
3194.00,0.0002
3181.00,0.0001
3168.00,0.0001
3155.00,0.0001
3142.00,0.0001
3129.00,0.0001
3116.00,0.0002
3103.00,0.0007
3090.00,0.0010
3077.00,0.0017
3064.00,0.0025
3051.00,0.0020
3038.00,0.0020
3025.00,0.0062
3012.00,0.0015
2999.00,0.0014
2986.00,0.0005
2973.00,0.0007
2960.00,0.0013
2947.00,0.0027
2934.00,0.0056
2921.00,0.0079
2908.00,0.0060
2895.00,0.0033
2882.00,0.0022
2869.00,0.0017
2856.00,0.0028
2843.00,0.0027
2830.00,0.0006
2817.00,0.0004
2804.00,0.0003
2791.00,0.0002
2778.00,0.0002
2765.00,0.0001
2752.00,0.0001
2739.00,0.0001
2726.00,0.0001
2713.00,0.0001
2700.00,0.0001
2687.00,0.0001
2674.00,0.0001
2661.00,0.0004
2648.00,0.0005
2635.00,0.0005
2622.00,0.0004
2609.00,0.0004
2596.00,0.0002
2583.00,0.0002
2570.00,0.0001
2557.00,0.0000
2544.00,0.0000
2531.00,0.0000
2518.00,-0.0000
2505.00,-0.0000
2492.00,-0.0001
2479.00,-0.0001
2466.00,-0.0001
2453.00,0.0000
2440.00,-0.0002
2427.00,-0.0003
2414.00,-0.0003
2401.00,-0.0005
2388.00,-0.0005
2375.00,-0.0007
2362.00,-0.0006
2349.00,-0.0004
2336.00,-0.0002
2323.00,0.0008
2310.00,0.0001
2297.00,0.0004
2284.00,0.0009
2271.00,0.0005
2258.00,0.0002
2245.00,0.0001
2232.00,0.0000
2219.00,0.0000
2206.00,-0.0001
2193.00,0.0002
2180.00,-0.0005
2167.00,0.0008
2154.00,-0.0021
2141.00,-0.0017
2128.00,-0.0014
2115.00,-0.0004
2102.00,-0.0004
2089.00,-0.0003
2076.00,-0.0001
2063.00,-0.0004
2050.00,0.0008
2037.00,-0.0002
2024.00,-0.0009
2011.00,-0.0008
1998.00,-0.0005
1985.00,0.0001
1972.00,-0.0008
1959.00,-0.0008
1946.00,-0.0001
1933.00,-0.0005
1920.00,-0.0004
1907.00,-0.0006
1894.00,-0.0004
1881.00,0.0001
1868.00,0.0002
1855.00,-0.0003
1842.00,-0.0004
1829.00,-0.0003
1816.00,-0.0001
1803.00,0.0006
1790.00,0.0001
1777.00,-0.0000
1764.00,0.0001
1751.00,0.0007
1738.00,0.0009
1725.00,0.0006
1712.00,0.0004
1699.00,0.0005
1686.00,0.0007
1673.00,0.0010
1660.00,0.0011
1647.00,0.0007
1634.00,0.0005
1621.00,0.0010
1608.00,0.0028
1595.00,0.0037
1582.00,0.0031
1569.00,0.0006
1556.00,0.0005
1543.00,0.0011
1530.00,0.0006
1517.00,0.0006
1504.00,0.0014
1491.00,0.0189
1478.00,0.0022
1465.00,0.0024
1452.00,0.0199
1439.00,0.0077
1426.00,0.0022
1413.00,0.0015
1400.00,0.0015
1387.00,0.0024
1374.00,0.0041
1361.00,0.0040
1348.00,0.0034
1335.00,0.0030
1322.00,0.0033
1309.00,0.0035
1296.00,0.0030
1283.00,0.0027
1270.00,0.0019
1257.00,0.0016
1244.00,0.0018
1231.00,0.0019
1218.00,0.0020
1205.00,0.0024
1192.00,0.0034
1179.00,0.0042
1166.00,0.0024
1153.00,0.0045
1140.00,0.0016
1127.00,0.0017
1114.00,0.0023
1101.00,0.0025
1088.00,0.0030
1075.00,0.0054
1062.00,0.0056
1049.00,0.0036
1036.00,0.0048
1023.00,0.0086
1010.00,0.0045
997.00,0.0035
984.00,0.0041
971.00,0.0041
958.00,0.0038
945.00,0.0039
932.00,0.0027
919.00,0.0033
906.00,0.0087
893.00,0.0029
880.00,0.0019
867.00,0.0017
854.00,0.0020
841.00,0.0043
828.00,0.0018
815.00,0.0017
802.00,0.0020
789.00,0.0043
776.00,0.0112
763.00,0.0298
750.00,0.0396
737.00,0.0169
724.00,0.0045
711.00,0.0102
698.00,0.1036
685.00,0.0445
672.00,0.0189
659.00,0.0106
646.00,0.0062
633.00,0.0069
620.00,0.0085
607.00,0.0065
594.00,0.0073
581.00,0.0101
568.00,0.0172
555.00,0.0247
542.00,0.0402
529.00,0.0306
516.00,0.0142
503.00,0.0097
490.00,0.0075
477.00,0.0061
464.00,0.0052
451.00,0.0051
438.00,0.0049
425.00,0.0044
412.00,0.0034
400.00,0.0055

File: 2025_08_12_Polystyrene_film_scan3.csv
Created as New Dataset,Sample 040 By YargerLab Date Tuesday, August 12 2025
cm-1,A
4000.00,0.0003
3987.00,0.0003
3974.00,0.0003
3961.00,0.0003
3948.00,0.0003
3935.00,0.0003
3922.00,0.0003
3909.00,0.0003
3896.00,0.0002
3883.00,0.0001
3870.00,0.0001
3857.00,0.0001
3844.00,0.0003
3831.00,0.0002
3818.00,0.0000
3805.00,0.0002
3792.00,0.0003
3779.00,0.0003
3766.00,0.0003
3753.00,0.0002
3740.00,0.0000
3727.00,0.0001
3714.00,0.0002
3701.00,0.0001
3688.00,0.0000
3675.00,-0.0001
3662.00,0.0002
3649.00,-0.0000
3636.00,0.0002
3623.00,0.0000
3610.00,-0.0000
3597.00,0.0000
3584.00,-0.0000
3571.00,0.0002
3558.00,0.0002
3545.00,0.0001
3532.00,0.0002
3519.00,0.0002
3506.00,0.0002
3493.00,0.0002
3480.00,0.0003
3467.00,0.0004
3454.00,0.0002
3441.00,0.0003
3428.00,0.0003
3415.00,0.0003
3402.00,0.0003
3389.00,0.0003
3376.00,0.0003
3363.00,0.0003
3350.00,0.0003
3337.00,0.0004
3324.00,0.0003
3311.00,0.0004
3298.00,0.0004
3285.00,0.0004
3272.00,0.0003
3259.00,0.0003
3246.00,0.0003
3233.00,0.0003
3220.00,0.0003
3207.00,0.0003
3194.00,0.0003
3181.00,0.0003
3168.00,0.0003
3155.00,0.0003
3142.00,0.0003
3129.00,0.0003
3116.00,0.0004
3103.00,0.0010
3090.00,0.0014
3077.00,0.0023
3064.00,0.0032
3051.00,0.0025
3038.00,0.0026
3025.00,0.0078
3012.00,0.0020
2999.00,0.0019
2986.00,0.0008
2973.00,0.0009
2960.00,0.0015
2947.00,0.0031
2934.00,0.0065
2921.00,0.0094
2908.00,0.0072
2895.00,0.0040
2882.00,0.0027
2869.00,0.0021
2856.00,0.0033
2843.00,0.0034
2830.00,0.0009
2817.00,0.0007
2804.00,0.0006
2791.00,0.0005
2778.00,0.0005
2765.00,0.0004
2752.00,0.0004
2739.00,0.0004
2726.00,0.0004
2713.00,0.0004
2700.00,0.0004
2687.00,0.0004
2674.00,0.0004
2661.00,0.0007
2648.00,0.0008
2635.00,0.0008
2622.00,0.0007
2609.00,0.0007
2596.00,0.0006
2583.00,0.0005
2570.00,0.0004
2557.00,0.0003
2544.00,0.0003
2531.00,0.0002
2518.00,0.0002
2505.00,0.0002
2492.00,0.0002
2479.00,0.0001
2466.00,0.0002
2453.00,0.0003
2440.00,0.0001
2427.00,-0.0000
2414.00,0.0000
2401.00,-0.0002
2388.00,-0.0002
2375.00,-0.0006
2362.00,-0.0006
2349.00,-0.0004
2336.00,-0.0001
2323.00,0.0008
2310.00,0.0001
2297.00,0.0005
2284.00,0.0010
2271.00,0.0007
2258.00,0.0004
2245.00,0.0002
2232.00,0.0001
2219.00,0.0001
2206.00,0.0003
2193.00,0.0005
2180.00,-0.0002
2167.00,0.0011
2154.00,-0.0017
2141.00,-0.0015
2128.00,-0.0011
2115.00,-0.0001
2102.00,-0.0002
2089.00,0.0000
2076.00,0.0002
2063.00,-0.0002
2050.00,0.0008
2037.00,0.0002
2024.00,-0.0005
2011.00,-0.0004
1998.00,-0.0002
1985.00,0.0004
1972.00,-0.0007
1959.00,-0.0007
1946.00,0.0003
1933.00,-0.0001
1920.00,-0.0002
1907.00,-0.0004
1894.00,-0.0001
1881.00,0.0004
1868.00,0.0007
1855.00,0.0000
1842.00,-0.0002
1829.00,0.0000
1816.00,0.0003
1803.00,0.0010
1790.00,0.0004
1777.00,0.0003
1764.00,0.0004
1751.00,0.0011
1738.00,0.0013
1725.00,0.0009
1712.00,0.0007
1699.00,0.0007
1686.00,0.0007
1673.00,0.0010
1660.00,0.0010
1647.00,0.0006
1634.00,0.0005
1621.00,0.0009
1608.00,0.0032
1595.00,0.0046
1582.00,0.0036
1569.00,0.0008
1556.00,0.0007
1543.00,0.0013
1530.00,0.0009
1517.00,0.0009
1504.00,0.0018
1491.00,0.0228
1478.00,0.0026
1465.00,0.0027
1452.00,0.0240
1439.00,0.0089
1426.00,0.0025
1413.00,0.0017
1400.00,0.0017
1387.00,0.0030
1374.00,0.0050
1361.00,0.0047
1348.00,0.0041
1335.00,0.0037
1322.00,0.0040
1309.00,0.0042
1296.00,0.0034
1283.00,0.0031
1270.00,0.0023
1257.00,0.0020
1244.00,0.0022
1231.00,0.0022
1218.00,0.0023
1205.00,0.0030
1192.00,0.0040
1179.00,0.0051
1166.00,0.0029
1153.00,0.0054
1140.00,0.0020
1127.00,0.0019
1114.00,0.0028
1101.00,0.0029
1088.00,0.0036
1075.00,0.0065
1062.00,0.0065
1049.00,0.0043
1036.00,0.0058
1023.00,0.0104
1010.00,0.0054
997.00,0.0043
984.00,0.0051
971.00,0.0050
958.00,0.0047
945.00,0.0047
932.00,0.0033
919.00,0.0040
906.00,0.0105
893.00,0.0035
880.00,0.0023
867.00,0.0020
854.00,0.0024
841.00,0.0051
828.00,0.0020
815.00,0.0020
802.00,0.0024
789.00,0.0052
776.00,0.0133
763.00,0.0357
750.00,0.0472
737.00,0.0200
724.00,0.0052
711.00,0.0122
698.00,0.1253
685.00,0.0521
672.00,0.0219
659.00,0.0125
646.00,0.0071
633.00,0.0080
620.00,0.0100
607.00,0.0077
594.00,0.0085
581.00,0.0115
568.00,0.0202
555.00,0.0292
542.00,0.0478
529.00,0.0358
516.00,0.0168
503.00,0.0109
490.00,0.0089
477.00,0.0075
464.00,0.0062
451.00,0.0061
438.00,0.0060
425.00,0.0055
412.00,0.0035
400.00,0.0047

File: 2025_08_13_Polystyrene_Standard_scan1.csv
Created as New Dataset,Sample 053 By YargerLab Date Tuesday, August 12 2025
cm-1,A
4000.00,0.0012
3987.00,0.0011
3974.00,0.0011
3961.00,0.0011
3948.00,0.0011
3935.00,0.0011
3922.00,0.0011
3909.00,0.0011
3896.00,0.0011
3883.00,0.0010
3870.00,0.0010
3857.00,0.0010
3844.00,0.0011
3831.00,0.0011
3818.00,0.0011
3805.00,0.0011
3792.00,0.0011
3779.00,0.0010
3766.00,0.0011
3753.00,0.0010
3740.00,0.0011
3727.00,0.0011
3714.00,0.0010
3701.00,0.0010
3688.00,0.0010
3675.00,0.0011
3662.00,0.0011
3649.00,0.0012
3636.00,0.0010
3623.00,0.0011
3610.00,0.0010
3597.00,0.0011
3584.00,0.0011
3571.00,0.0013
3558.00,0.0014
3545.00,0.0015
3532.00,0.0015
3519.00,0.0016
3506.00,0.0017
3493.00,0.0018
3480.00,0.0018
3467.00,0.0019
3454.00,0.0019
3441.00,0.0019
3428.00,0.0019
3415.00,0.0019
3402.00,0.0018
3389.00,0.0019
3376.00,0.0018
3363.00,0.0018
3350.00,0.0018
3337.00,0.0018
3324.00,0.0017
3311.00,0.0017
3298.00,0.0016
3285.00,0.0016
3272.00,0.0016
3259.00,0.0016
3246.00,0.0015
3233.00,0.0015
3220.00,0.0015
3207.00,0.0015
3194.00,0.0014
3181.00,0.0014
3168.00,0.0015
3155.00,0.0013
3142.00,0.0013
3129.00,0.0014
3116.00,0.0019
3103.00,0.0040
3090.00,0.0060
3077.00,0.0082
3064.00,0.0127
3051.00,0.0087
3038.00,0.0102
3025.00,0.0277
3012.00,0.0074
2999.00,0.0070
2986.00,0.0038
2973.00,0.0044
2960.00,0.0065
2947.00,0.0122
2934.00,0.0250
2921.00,0.0336
2908.00,0.0250
2895.00,0.0147
2882.00,0.0102
2869.00,0.0082
2856.00,0.0128
2843.00,0.0113
2830.00,0.0039
2817.00,0.0030
2804.00,0.0027
2791.00,0.0023
2778.00,0.0022
2765.00,0.0020
2752.00,0.0018
2739.00,0.0018
2726.00,0.0019
2713.00,0.0018
2700.00,0.0018
2687.00,0.0018
2674.00,0.0018
2661.00,0.0021
2648.00,0.0022
2635.00,0.0023
2622.00,0.0020
2609.00,0.0020
2596.00,0.0018
2583.00,0.0017
2570.00,0.0015
2557.00,0.0014
2544.00,0.0013
2531.00,0.0012
2518.00,0.0013
2505.00,0.0012
2492.00,0.0012
2479.00,0.0012
2466.00,0.0010
2453.00,0.0012
2440.00,0.0009
2427.00,0.0007
2414.00,0.0008
2401.00,0.0006
2388.00,0.0006
2375.00,0.0006
2362.00,0.0008
2349.00,0.0011
2336.00,0.0015
2323.00,0.0024
2310.00,0.0019
2297.00,0.0016
2284.00,0.0018
2271.00,0.0013
2258.00,0.0013
2245.00,0.0009
2232.00,0.0010
2219.00,0.0008
2206.00,0.0004
2193.00,0.0007
2180.00,0.0006
2167.00,0.0017
2154.00,-0.0017
2141.00,-0.0010
2128.00,-0.0008
2115.00,0.0004
2102.00,0.0003
2089.00,0.0002
2076.00,0.0005
2063.00,0.0002
2050.00,0.0011
2037.00,0.0005
2024.00,-0.0006
2011.00,-0.0000
1998.00,-0.0001
1985.00,0.0011
1972.00,-0.0001
1959.00,0.0010
1946.00,0.0030
1933.00,0.0015
1920.00,0.0005
1907.00,0.0004
1894.00,0.0014
1881.00,0.0026
1868.00,0.0029
1855.00,0.0012
1842.00,0.0006
1829.00,0.0011
1816.00,0.0022
1803.00,0.0038
1790.00,0.0022
1777.00,0.0020
1764.00,0.0024
1751.00,0.0043
1738.00,0.0054
1725.00,0.0041
1712.00,0.0033
1699.00,0.0031
1686.00,0.0036
1673.00,0.0044
1660.00,0.0041
1647.00,0.0030
1634.00,0.0025
1621.00,0.0029
1608.00,0.0102
1595.00,0.0121
1582.00,0.0096
1569.00,0.0025
1556.00,0.0023
1543.00,0.0035
1530.00,0.0024
1517.00,0.0023
1504.00,0.0055
1491.00,0.0527
1478.00,0.0066
1465.00,0.0071
1452.00,0.0615
1439.00,0.0217
1426.00,0.0067
1413.00,0.0048
1400.00,0.0048
1387.00,0.0084
1374.00,0.0131
1361.00,0.0120
1348.00,0.0106
1335.00,0.0097
1322.00,0.0103
1309.00,0.0105
1296.00,0.0089
1283.00,0.0080
1270.00,0.0063
1257.00,0.0057
1244.00,0.0060
1231.00,0.0059
1218.00,0.0060
1205.00,0.0075
1192.00,0.0094
1179.00,0.0120
1166.00,0.0075
1153.00,0.0125
1140.00,0.0055
1127.00,0.0050
1114.00,0.0068
1101.00,0.0070
1088.00,0.0087
1075.00,0.0145
1062.00,0.0141
1049.00,0.0092
1036.00,0.0132
1023.00,0.0218
1010.00,0.0116
997.00,0.0092
984.00,0.0106
971.00,0.0106
958.00,0.0099
945.00,0.0096
932.00,0.0070
919.00,0.0083
906.00,0.0196
893.00,0.0070
880.00,0.0050
867.00,0.0044
854.00,0.0049
841.00,0.0098
828.00,0.0043
815.00,0.0042
802.00,0.0050
789.00,0.0096
776.00,0.0249
763.00,0.0630
750.00,0.0787
737.00,0.0337
724.00,0.0092
711.00,0.0222
698.00,0.1841
685.00,0.0657
672.00,0.0308
659.00,0.0189
646.00,0.0128
633.00,0.0138
620.00,0.0165
607.00,0.0128
594.00,0.0144
581.00,0.0184
568.00,0.0309
555.00,0.0438
542.00,0.0673
529.00,0.0469
516.00,0.0237
503.00,0.0161
490.00,0.0129
477.00,0.0104
464.00,0.0097
451.00,0.0090
438.00,0.0085
425.00,0.0083
412.00,0.0074
400.00,0.0071

File: 2025_08_13_Polystyrene_Standard_scan2.csv
Created as New Dataset,Sample 054 By YargerLab Date Wednesday, August 13 2025
cm-1,A
4000.00,0.0013
3987.00,0.0012
3974.00,0.0012
3961.00,0.0011
3948.00,0.0011
3935.00,0.0011
3922.00,0.0011
3909.00,0.0011
3896.00,0.0011
3883.00,0.0009
3870.00,0.0009
3857.00,0.0009
3844.00,0.0010
3831.00,0.0010
3818.00,0.0008
3805.00,0.0010
3792.00,0.0011
3779.00,0.0010
3766.00,0.0010
3753.00,0.0008
3740.00,0.0009
3727.00,0.0010
3714.00,0.0009
3701.00,0.0010
3688.00,0.0009
3675.00,0.0009
3662.00,0.0011
3649.00,0.0009
3636.00,0.0011
3623.00,0.0010
3610.00,0.0009
3597.00,0.0011
3584.00,0.0011
3571.00,0.0011
3558.00,0.0012
3545.00,0.0012
3532.00,0.0013
3519.00,0.0014
3506.00,0.0015
3493.00,0.0015
3480.00,0.0015
3467.00,0.0015
3454.00,0.0015
3441.00,0.0015
3428.00,0.0015
3415.00,0.0015
3402.00,0.0015
3389.00,0.0015
3376.00,0.0015
3363.00,0.0015
3350.00,0.0014
3337.00,0.0014
3324.00,0.0014
3311.00,0.0014
3298.00,0.0013
3285.00,0.0013
3272.00,0.0013
3259.00,0.0013
3246.00,0.0013
3233.00,0.0013
3220.00,0.0013
3207.00,0.0013
3194.00,0.0013
3181.00,0.0013
3168.00,0.0014
3155.00,0.0013
3142.00,0.0013
3129.00,0.0013
3116.00,0.0017
3103.00,0.0035
3090.00,0.0048
3077.00,0.0067
3064.00,0.0103
3051.00,0.0071
3038.00,0.0081
3025.00,0.0227
3012.00,0.0061
2999.00,0.0058
2986.00,0.0031
2973.00,0.0034
2960.00,0.0049
2947.00,0.0093
2934.00,0.0196
2921.00,0.0269
2908.00,0.0199
2895.00,0.0116
2882.00,0.0080
2869.00,0.0064
2856.00,0.0101
2843.00,0.0092
2830.00,0.0033
2817.00,0.0025
2804.00,0.0024
2791.00,0.0021
2778.00,0.0020
2765.00,0.0018
2752.00,0.0017
2739.00,0.0017
2726.00,0.0018
2713.00,0.0018
2700.00,0.0017
2687.00,0.0018
2674.00,0.0017
2661.00,0.0019
2648.00,0.0019
2635.00,0.0019
2622.00,0.0017
2609.00,0.0018
2596.00,0.0016
2583.00,0.0016
2570.00,0.0014
2557.00,0.0013
2544.00,0.0013
2531.00,0.0013
2518.00,0.0013
2505.00,0.0013
2492.00,0.0012
2479.00,0.0012
2466.00,0.0011
2453.00,0.0012
2440.00,0.0011
2427.00,0.0009
2414.00,0.0010
2401.00,0.0009
2388.00,0.0009
2375.00,0.0009
2362.00,0.0011
2349.00,0.0013
2336.00,0.0016
2323.00,0.0018
2310.00,0.0016
2297.00,0.0013
2284.00,0.0013
2271.00,0.0012
2258.00,0.0010
2245.00,0.0009
2232.00,0.0011
2219.00,0.0008
2206.00,0.0006
2193.00,0.0008
2180.00,0.0008
2167.00,0.0012
2154.00,-0.0004
2141.00,-0.0001
2128.00,-0.0000
2115.00,0.0005
2102.00,0.0004
2089.00,0.0004
2076.00,0.0007
2063.00,0.0005
2050.00,0.0007
2037.00,0.0005
2024.00,0.0001
2011.00,0.0003
1998.00,0.0003
1985.00,0.0008
1972.00,0.0005
1959.00,0.0016
1946.00,0.0029
1933.00,0.0017
1920.00,0.0008
1907.00,0.0008
1894.00,0.0015
1881.00,0.0025
1868.00,0.0027
1855.00,0.0013
1842.00,0.0009
1829.00,0.0013
1816.00,0.0023
1803.00,0.0035
1790.00,0.0022
1777.00,0.0021
1764.00,0.0023
1751.00,0.0040
1738.00,0.0048
1725.00,0.0037
1712.00,0.0030
1699.00,0.0024
1686.00,0.0022
1673.00,0.0025
1660.00,0.0025
1647.00,0.0021
1634.00,0.0020
1621.00,0.0025
1608.00,0.0083
1595.00,0.0103
1582.00,0.0081
1569.00,0.0023
1556.00,0.0022
1543.00,0.0033
1530.00,0.0024
1517.00,0.0023
1504.00,0.0048
1491.00,0.0447
1478.00,0.0057
1465.00,0.0059
1452.00,0.0518
1439.00,0.0180
1426.00,0.0054
1413.00,0.0041
1400.00,0.0041
1387.00,0.0072
1374.00,0.0110
1361.00,0.0103
1348.00,0.0091
1335.00,0.0083
1322.00,0.0087
1309.00,0.0089
1296.00,0.0072
1283.00,0.0065
1270.00,0.0052
1257.00,0.0049
1244.00,0.0052
1231.00,0.0050
1218.00,0.0052
1205.00,0.0065
1192.00,0.0082
1179.00,0.0104
1166.00,0.0065
1153.00,0.0107
1140.00,0.0048
1127.00,0.0043
1114.00,0.0058
1101.00,0.0060
1088.00,0.0074
1075.00,0.0124
1062.00,0.0119
1049.00,0.0079
1036.00,0.0111
1023.00,0.0190
1010.00,0.0101
997.00,0.0080
984.00,0.0092
971.00,0.0091
958.00,0.0086
945.00,0.0084
932.00,0.0062
919.00,0.0072
906.00,0.0172
893.00,0.0062
880.00,0.0046
867.00,0.0039
854.00,0.0044
841.00,0.0086
828.00,0.0040
815.00,0.0039
802.00,0.0045
789.00,0.0086
776.00,0.0218
763.00,0.0555
750.00,0.0695
737.00,0.0293
724.00,0.0083
711.00,0.0191
698.00,0.1671
685.00,0.0603
672.00,0.0279
659.00,0.0168
646.00,0.0112
633.00,0.0123
620.00,0.0146
607.00,0.0113
594.00,0.0128
581.00,0.0164
568.00,0.0277
555.00,0.0398
542.00,0.0611
529.00,0.0424
516.00,0.0214
503.00,0.0142
490.00,0.0114
477.00,0.0094
464.00,0.0087
451.00,0.0078
438.00,0.0081
425.00,0.0075
412.00,0.0076
400.00,0.0075

File: 2025_08_13_Polystyrene_Standard_scan3.csv
Created as New Dataset,Sample 055 By YargerLab Date Wednesday, August 13 2025
cm-1,A
4000.00,0.0020
3987.00,0.0020
3974.00,0.0019
3961.00,0.0019
3948.00,0.0018
3935.00,0.0018
3922.00,0.0018
3909.00,0.0018
3896.00,0.0016
3883.00,0.0016
3870.00,0.0016
3857.00,0.0015
3844.00,0.0017
3831.00,0.0017
3818.00,0.0015
3805.00,0.0016
3792.00,0.0017
3779.00,0.0017
3766.00,0.0017
3753.00,0.0014
3740.00,0.0014
3727.00,0.0017
3714.00,0.0015
3701.00,0.0017
3688.00,0.0015
3675.00,0.0015
3662.00,0.0018
3649.00,0.0016
3636.00,0.0018
3623.00,0.0017
3610.00,0.0016
3597.00,0.0018
3584.00,0.0017
3571.00,0.0018
3558.00,0.0020
3545.00,0.0020
3532.00,0.0020
3519.00,0.0021
3506.00,0.0022
3493.00,0.0022
3480.00,0.0022
3467.00,0.0022
3454.00,0.0023
3441.00,0.0024
3428.00,0.0023
3415.00,0.0023
3402.00,0.0023
3389.00,0.0023
3376.00,0.0022
3363.00,0.0022
3350.00,0.0022
3337.00,0.0022
3324.00,0.0021
3311.00,0.0021
3298.00,0.0020
3285.00,0.0021
3272.00,0.0021
3259.00,0.0020
3246.00,0.0020
3233.00,0.0020
3220.00,0.0021
3207.00,0.0020
3194.00,0.0020
3181.00,0.0019
3168.00,0.0021
3155.00,0.0020
3142.00,0.0020
3129.00,0.0020
3116.00,0.0025
3103.00,0.0048
3090.00,0.0067
3077.00,0.0092
3064.00,0.0139
3051.00,0.0097
3038.00,0.0111
3025.00,0.0303
3012.00,0.0083
2999.00,0.0080
2986.00,0.0044
2973.00,0.0048
2960.00,0.0068
2947.00,0.0127
2934.00,0.0263
2921.00,0.0360
2908.00,0.0267
2895.00,0.0157
2882.00,0.0110
2869.00,0.0088
2856.00,0.0136
2843.00,0.0124
2830.00,0.0046
2817.00,0.0037
2804.00,0.0034
2791.00,0.0030
2778.00,0.0029
2765.00,0.0027
2752.00,0.0026
2739.00,0.0026
2726.00,0.0026
2713.00,0.0026
2700.00,0.0026
2687.00,0.0026
2674.00,0.0025
2661.00,0.0027
2648.00,0.0027
2635.00,0.0028
2622.00,0.0025
2609.00,0.0025
2596.00,0.0024
2583.00,0.0024
2570.00,0.0021
2557.00,0.0020
2544.00,0.0020
2531.00,0.0019
2518.00,0.0019
2505.00,0.0019
2492.00,0.0020
2479.00,0.0018
2466.00,0.0017
2453.00,0.0018
2440.00,0.0016
2427.00,0.0015
2414.00,0.0015
2401.00,0.0014
2388.00,0.0014
2375.00,0.0017
2362.00,0.0019
2349.00,0.0021
2336.00,0.0023
2323.00,0.0027
2310.00,0.0024
2297.00,0.0020
2284.00,0.0020
2271.00,0.0017
2258.00,0.0016
2245.00,0.0014
2232.00,0.0013
2219.00,0.0012
2206.00,0.0011
2193.00,0.0013
2180.00,0.0009
2167.00,0.0017
2154.00,-0.0000
2141.00,0.0002
2128.00,0.0004
2115.00,0.0011
2102.00,0.0009
2089.00,0.0009
2076.00,0.0010
2063.00,0.0007
2050.00,0.0010
2037.00,0.0010
2024.00,0.0002
2011.00,0.0006
1998.00,0.0008
1985.00,0.0013
1972.00,0.0008
1959.00,0.0025
1946.00,0.0041
1933.00,0.0026
1920.00,0.0014
1907.00,0.0012
1894.00,0.0022
1881.00,0.0035
1868.00,0.0038
1855.00,0.0020
1842.00,0.0014
1829.00,0.0019
1816.00,0.0031
1803.00,0.0048
1790.00,0.0030
1777.00,0.0028
1764.00,0.0031
1751.00,0.0053
1738.00,0.0067
1725.00,0.0051
1712.00,0.0041
1699.00,0.0033
1686.00,0.0032
1673.00,0.0037
1660.00,0.0036
1647.00,0.0030
1634.00,0.0029
1621.00,0.0035
1608.00,0.0113
1595.00,0.0140
1582.00,0.0110
1569.00,0.0033
1556.00,0.0031
1543.00,0.0045
1530.00,0.0034
1517.00,0.0032
1504.00,0.0064
1491.00,0.0599
1478.00,0.0077
1465.00,0.0079
1452.00,0.0695
1439.00,0.0239
1426.00,0.0073
1413.00,0.0056
1400.00,0.0056
1387.00,0.0096
1374.00,0.0148
1361.00,0.0136
1348.00,0.0122
1335.00,0.0111
1322.00,0.0117
1309.00,0.0120
1296.00,0.0097
1283.00,0.0089
1270.00,0.0072
1257.00,0.0067
1244.00,0.0070
1231.00,0.0068
1218.00,0.0070
1205.00,0.0088
1192.00,0.0109
1179.00,0.0138
1166.00,0.0088
1153.00,0.0143
1140.00,0.0065
1127.00,0.0058
1114.00,0.0079
1101.00,0.0080
1088.00,0.0099
1075.00,0.0163
1062.00,0.0158
1049.00,0.0106
1036.00,0.0148
1023.00,0.0250
1010.00,0.0134
997.00,0.0106
984.00,0.0122
971.00,0.0121
958.00,0.0114
945.00,0.0112
932.00,0.0082
919.00,0.0096
906.00,0.0227
893.00,0.0083
880.00,0.0060
867.00,0.0053
854.00,0.0059
841.00,0.0115
828.00,0.0053
815.00,0.0052
802.00,0.0062
789.00,0.0114
776.00,0.0288
763.00,0.0746
750.00,0.0945
737.00,0.0394
724.00,0.0111
711.00,0.0255
698.00,0.2390
685.00,0.0824
672.00,0.0378
659.00,0.0228
646.00,0.0151
633.00,0.0166
620.00,0.0198
607.00,0.0153
594.00,0.0172
581.00,0.0222
568.00,0.0371
555.00,0.0534
542.00,0.0832
529.00,0.0581
516.00,0.0289
503.00,0.0188
490.00,0.0152
477.00,0.0128
464.00,0.0118
451.00,0.0104
438.00,0.0108
425.00,0.0102
412.00,0.0103
400.00,0.0100