Folder: Data/FTIR/Olivia (part 16)

File: 2025_08_04_1CBN_3PVP10kDa_MC_powder_scan2.csv
Created as New Dataset,Sample 1043 By YargerLab Date Monday, August 04 2025
cm-1,A
4000.00,0.0028
3987.00,0.0029
3974.00,0.0028
3961.00,0.0029
3948.00,0.0029
3935.00,0.0029
3922.00,0.0029
3909.00,0.0029
3896.00,0.0031
3883.00,0.0031
3870.00,0.0032
3857.00,0.0032
3844.00,0.0031
3831.00,0.0031
3818.00,0.0033
3805.00,0.0032
3792.00,0.0030
3779.00,0.0030
3766.00,0.0031
3753.00,0.0034
3740.00,0.0034
3727.00,0.0031
3714.00,0.0031
3701.00,0.0029
3688.00,0.0031
3675.00,0.0033
3662.00,0.0030
3649.00,0.0036
3636.00,0.0032
3623.00,0.0036
3610.00,0.0040
3597.00,0.0040
3584.00,0.0045
3571.00,0.0050
3558.00,0.0053
3545.00,0.0059
3532.00,0.0064
3519.00,0.0067
3506.00,0.0071
3493.00,0.0074
3480.00,0.0077
3467.00,0.0081
3454.00,0.0085
3441.00,0.0089
3428.00,0.0095
3415.00,0.0100
3402.00,0.0104
3389.00,0.0104
3376.00,0.0100
3363.00,0.0096
3350.00,0.0092
3337.00,0.0088
3324.00,0.0088
3311.00,0.0087
3298.00,0.0088
3285.00,0.0089
3272.00,0.0090
3259.00,0.0090
3246.00,0.0091
3233.00,0.0089
3220.00,0.0087
3207.00,0.0083
3194.00,0.0078
3181.00,0.0074
3168.00,0.0069
3155.00,0.0063
3142.00,0.0058
3129.00,0.0055
3116.00,0.0052
3103.00,0.0049
3090.00,0.0048
3077.00,0.0046
3064.00,0.0045
3051.00,0.0045
3038.00,0.0045
3025.00,0.0044
3012.00,0.0044
2999.00,0.0052
2986.00,0.0069
2973.00,0.0091
2960.00,0.0111
2947.00,0.0101
2934.00,0.0129
2921.00,0.0128
2908.00,0.0097
2895.00,0.0084
2882.00,0.0080
2869.00,0.0090
2856.00,0.0104
2843.00,0.0068
2830.00,0.0052
2817.00,0.0045
2804.00,0.0042
2791.00,0.0040
2778.00,0.0038
2765.00,0.0037
2752.00,0.0037
2739.00,0.0037
2726.00,0.0038
2713.00,0.0037
2700.00,0.0036
2687.00,0.0035
2674.00,0.0035
2661.00,0.0039
2648.00,0.0040
2635.00,0.0039
2622.00,0.0038
2609.00,0.0037
2596.00,0.0037
2583.00,0.0036
2570.00,0.0035
2557.00,0.0035
2544.00,0.0034
2531.00,0.0034
2518.00,0.0032
2505.00,0.0031
2492.00,0.0031
2479.00,0.0030
2466.00,0.0030
2453.00,0.0032
2440.00,0.0030
2427.00,0.0030
2414.00,0.0029
2401.00,0.0028
2388.00,0.0027
2375.00,0.0024
2362.00,0.0025
2349.00,0.0024
2336.00,0.0027
2323.00,0.0036
2310.00,0.0027
2297.00,0.0033
2284.00,0.0039
2271.00,0.0032
2258.00,0.0034
2245.00,0.0033
2232.00,0.0033
2219.00,0.0032
2206.00,0.0032
2193.00,0.0033
2180.00,0.0027
2167.00,0.0041
2154.00,0.0011
2141.00,0.0018
2128.00,0.0019
2115.00,0.0030
2102.00,0.0029
2089.00,0.0027
2076.00,0.0029
2063.00,0.0028
2050.00,0.0038
2037.00,0.0031
2024.00,0.0022
2011.00,0.0021
1998.00,0.0025
1985.00,0.0029
1972.00,0.0018
1959.00,0.0015
1946.00,0.0019
1933.00,0.0018
1920.00,0.0022
1907.00,0.0025
1894.00,0.0024
1881.00,0.0022
1868.00,0.0023
1855.00,0.0023
1842.00,0.0024
1829.00,0.0023
1816.00,0.0020
1803.00,0.0024
1790.00,0.0025
1777.00,0.0025
1764.00,0.0026
1751.00,0.0028
1738.00,0.0030
1725.00,0.0033
1712.00,0.0042
1699.00,0.0075
1686.00,0.0182
1673.00,0.0292
1660.00,0.0374
1647.00,0.0387
1634.00,0.0280
1621.00,0.0285
1608.00,0.0199
1595.00,0.0120
1582.00,0.0158
1569.00,0.0101
1556.00,0.0066
1543.00,0.0058
1530.00,0.0054
1517.00,0.0060
1504.00,0.0085
1491.00,0.0130
1478.00,0.0079
1465.00,0.0184
1452.00,0.0163
1439.00,0.0248
1426.00,0.0291
1413.00,0.0207
1400.00,0.0191
1387.00,0.0140
1374.00,0.0145
1361.00,0.0160
1348.00,0.0120
1335.00,0.0103
1322.00,0.0136
1309.00,0.0137
1296.00,0.0227
1283.00,0.0328
1270.00,0.0281
1257.00,0.0179
1244.00,0.0170
1231.00,0.0208
1218.00,0.0185
1205.00,0.0154
1192.00,0.0185
1179.00,0.0124
1166.00,0.0130
1153.00,0.0181
1140.00,0.0102
1127.00,0.0189
1114.00,0.0114
1101.00,0.0138
1088.00,0.0095
1075.00,0.0098
1062.00,0.0135
1049.00,0.0234
1036.00,0.0135
1023.00,0.0179
1010.00,0.0110
997.00,0.0120
984.00,0.0089
971.00,0.0081
958.00,0.0077
945.00,0.0073
932.00,0.0097
919.00,0.0090
906.00,0.0080
893.00,0.0094
880.00,0.0084
867.00,0.0141
854.00,0.0132
841.00,0.0137
828.00,0.0126
815.00,0.0172
802.00,0.0085
789.00,0.0086
776.00,0.0100
763.00,0.0107
750.00,0.0126
737.00,0.0170
724.00,0.0151
711.00,0.0144
698.00,0.0153
685.00,0.0168
672.00,0.0196
659.00,0.0222
646.00,0.0238
633.00,0.0217
620.00,0.0222
607.00,0.0222
594.00,0.0247
581.00,0.0269
568.00,0.0270
555.00,0.0269
542.00,0.0265
529.00,0.0264
516.00,0.0246
503.00,0.0253
490.00,0.0252
477.00,0.0257
464.00,0.0247
451.00,0.0245
438.00,0.0233
425.00,0.0218
412.00,0.0203
400.00,0.0234

File: 2025_08_04_1CBN_3PVP10kDa_MC_powder_scan3.csv
Created as New Dataset,Sample 1044 By YargerLab Date Monday, August 04 2025
cm-1,A
4000.00,0.0069
3987.00,0.0069
3974.00,0.0068
3961.00,0.0069
3948.00,0.0069
3935.00,0.0069
3922.00,0.0069
3909.00,0.0070
3896.00,0.0069
3883.00,0.0069
3870.00,0.0068
3857.00,0.0069
3844.00,0.0069
3831.00,0.0069
3818.00,0.0069
3805.00,0.0070
3792.00,0.0069
3779.00,0.0069
3766.00,0.0068
3753.00,0.0069
3740.00,0.0068
3727.00,0.0068
3714.00,0.0068
3701.00,0.0067
3688.00,0.0068
3675.00,0.0069
3662.00,0.0070
3649.00,0.0072
3636.00,0.0075
3623.00,0.0079
3610.00,0.0085
3597.00,0.0090
3584.00,0.0098
3571.00,0.0107
3558.00,0.0117
3545.00,0.0126
3532.00,0.0134
3519.00,0.0141
3506.00,0.0147
3493.00,0.0153
3480.00,0.0159
3467.00,0.0168
3454.00,0.0176
3441.00,0.0185
3428.00,0.0196
3415.00,0.0209
3402.00,0.0215
3389.00,0.0212
3376.00,0.0202
3363.00,0.0194
3350.00,0.0187
3337.00,0.0183
3324.00,0.0182
3311.00,0.0182
3298.00,0.0185
3285.00,0.0189
3272.00,0.0189
3259.00,0.0192
3246.00,0.0192
3233.00,0.0189
3220.00,0.0184
3207.00,0.0176
3194.00,0.0165
3181.00,0.0155
3168.00,0.0146
3155.00,0.0135
3142.00,0.0126
3129.00,0.0120
3116.00,0.0114
3103.00,0.0109
3090.00,0.0107
3077.00,0.0106
3064.00,0.0103
3051.00,0.0103
3038.00,0.0104
3025.00,0.0102
3012.00,0.0101
2999.00,0.0120
2986.00,0.0158
2973.00,0.0203
2960.00,0.0247
2947.00,0.0222
2934.00,0.0284
2921.00,0.0292
2908.00,0.0220
2895.00,0.0191
2882.00,0.0182
2869.00,0.0203
2856.00,0.0238
2843.00,0.0160
2830.00,0.0126
2817.00,0.0110
2804.00,0.0103
2791.00,0.0099
2778.00,0.0096
2765.00,0.0094
2752.00,0.0093
2739.00,0.0094
2726.00,0.0095
2713.00,0.0093
2700.00,0.0091
2687.00,0.0090
2674.00,0.0089
2661.00,0.0093
2648.00,0.0094
2635.00,0.0093
2622.00,0.0091
2609.00,0.0090
2596.00,0.0090
2583.00,0.0090
2570.00,0.0089
2557.00,0.0087
2544.00,0.0086
2531.00,0.0085
2518.00,0.0083
2505.00,0.0082
2492.00,0.0082
2479.00,0.0080
2466.00,0.0081
2453.00,0.0082
2440.00,0.0081
2427.00,0.0079
2414.00,0.0079
2401.00,0.0078
2388.00,0.0076
2375.00,0.0073
2362.00,0.0072
2349.00,0.0073
2336.00,0.0075
2323.00,0.0084
2310.00,0.0075
2297.00,0.0081
2284.00,0.0088
2271.00,0.0082
2258.00,0.0082
2245.00,0.0081
2232.00,0.0081
2219.00,0.0080
2206.00,0.0080
2193.00,0.0082
2180.00,0.0078
2167.00,0.0087
2154.00,0.0058
2141.00,0.0066
2128.00,0.0067
2115.00,0.0079
2102.00,0.0077
2089.00,0.0075
2076.00,0.0077
2063.00,0.0075
2050.00,0.0084
2037.00,0.0075
2024.00,0.0067
2011.00,0.0066
1998.00,0.0070
1985.00,0.0071
1972.00,0.0064
1959.00,0.0058
1946.00,0.0065
1933.00,0.0063
1920.00,0.0067
1907.00,0.0072
1894.00,0.0072
1881.00,0.0068
1868.00,0.0070
1855.00,0.0069
1842.00,0.0069
1829.00,0.0069
1816.00,0.0066
1803.00,0.0068
1790.00,0.0068
1777.00,0.0070
1764.00,0.0070
1751.00,0.0072
1738.00,0.0073
1725.00,0.0082
1712.00,0.0098
1699.00,0.0165
1686.00,0.0375
1673.00,0.0638
1660.00,0.0828
1647.00,0.0815
1634.00,0.0590
1621.00,0.0596
1608.00,0.0417
1595.00,0.0263
1582.00,0.0344
1569.00,0.0232
1556.00,0.0160
1543.00,0.0144
1530.00,0.0136
1517.00,0.0148
1504.00,0.0192
1491.00,0.0275
1478.00,0.0175
1465.00,0.0390
1452.00,0.0346
1439.00,0.0510
1426.00,0.0621
1413.00,0.0443
1400.00,0.0410
1387.00,0.0310
1374.00,0.0317
1361.00,0.0351
1348.00,0.0266
1335.00,0.0233
1322.00,0.0293
1309.00,0.0287
1296.00,0.0470
1283.00,0.0689
1270.00,0.0596
1257.00,0.0387
1244.00,0.0366
1231.00,0.0441
1218.00,0.0393
1205.00,0.0327
1192.00,0.0391
1179.00,0.0272
1166.00,0.0282
1153.00,0.0377
1140.00,0.0231
1127.00,0.0390
1114.00,0.0250
1101.00,0.0295
1088.00,0.0215
1075.00,0.0219
1062.00,0.0285
1049.00,0.0476
1036.00,0.0291
1023.00,0.0370
1010.00,0.0244
997.00,0.0264
984.00,0.0204
971.00,0.0191
958.00,0.0181
945.00,0.0173
932.00,0.0219
919.00,0.0206
906.00,0.0185
893.00,0.0216
880.00,0.0194
867.00,0.0308
854.00,0.0289
841.00,0.0302
828.00,0.0281
815.00,0.0375
802.00,0.0201
789.00,0.0200
776.00,0.0225
763.00,0.0236
750.00,0.0274
737.00,0.0364
724.00,0.0327
711.00,0.0314
698.00,0.0334
685.00,0.0363
672.00,0.0420
659.00,0.0480
646.00,0.0517
633.00,0.0474
620.00,0.0480
607.00,0.0483
594.00,0.0536
581.00,0.0591
568.00,0.0603
555.00,0.0588
542.00,0.0578
529.00,0.0576
516.00,0.0532
503.00,0.0540
490.00,0.0538
477.00,0.0533
464.00,0.0528
451.00,0.0519
438.00,0.0499
425.00,0.0479
412.00,0.0468
400.00,0.0480

File: 2025_08_04_1CBN_3PVP10kDa_MortPest_powder_scan1.csv
Created as New Dataset,Sample 1032 By YargerLab Date Monday, August 04 2025
cm-1,A
4000.00,0.0093
3987.00,0.0093
3974.00,0.0093
3961.00,0.0093
3948.00,0.0092
3935.00,0.0093
3922.00,0.0093
3909.00,0.0093
3896.00,0.0092
3883.00,0.0092
3870.00,0.0092
3857.00,0.0094
3844.00,0.0093
3831.00,0.0093
3818.00,0.0093
3805.00,0.0093
3792.00,0.0092
3779.00,0.0092
3766.00,0.0093
3753.00,0.0094
3740.00,0.0092
3727.00,0.0090
3714.00,0.0091
3701.00,0.0090
3688.00,0.0092
3675.00,0.0095
3662.00,0.0095
3649.00,0.0098
3636.00,0.0102
3623.00,0.0107
3610.00,0.0115
3597.00,0.0123
3584.00,0.0133
3571.00,0.0147
3558.00,0.0159
3545.00,0.0170
3532.00,0.0180
3519.00,0.0189
3506.00,0.0194
3493.00,0.0202
3480.00,0.0209
3467.00,0.0217
3454.00,0.0225
3441.00,0.0233
3428.00,0.0243
3415.00,0.0252
3402.00,0.0256
3389.00,0.0251
3376.00,0.0241
3363.00,0.0232
3350.00,0.0223
3337.00,0.0218
3324.00,0.0216
3311.00,0.0214
3298.00,0.0216
3285.00,0.0218
3272.00,0.0216
3259.00,0.0217
3246.00,0.0215
3233.00,0.0212
3220.00,0.0206
3207.00,0.0197
3194.00,0.0188
3181.00,0.0177
3168.00,0.0169
3155.00,0.0159
3142.00,0.0152
3129.00,0.0146
3116.00,0.0141
3103.00,0.0136
3090.00,0.0133
3077.00,0.0132
3064.00,0.0129
3051.00,0.0129
3038.00,0.0129
3025.00,0.0128
3012.00,0.0129
2999.00,0.0152
2986.00,0.0193
2973.00,0.0241
2960.00,0.0288
2947.00,0.0266
2934.00,0.0306
2921.00,0.0339
2908.00,0.0271
2895.00,0.0244
2882.00,0.0236
2869.00,0.0246
2856.00,0.0276
2843.00,0.0209
2830.00,0.0170
2817.00,0.0151
2804.00,0.0143
2791.00,0.0138
2778.00,0.0134
2765.00,0.0132
2752.00,0.0131
2739.00,0.0131
2726.00,0.0131
2713.00,0.0130
2700.00,0.0129
2687.00,0.0127
2674.00,0.0127
2661.00,0.0130
2648.00,0.0131
2635.00,0.0129
2622.00,0.0127
2609.00,0.0126
2596.00,0.0126
2583.00,0.0126
2570.00,0.0124
2557.00,0.0123
2544.00,0.0121
2531.00,0.0121
2518.00,0.0120
2505.00,0.0119
2492.00,0.0118
2479.00,0.0117
2466.00,0.0116
2453.00,0.0118
2440.00,0.0117
2427.00,0.0117
2414.00,0.0116
2401.00,0.0115
2388.00,0.0114
2375.00,0.0111
2362.00,0.0111
2349.00,0.0113
2336.00,0.0117
2323.00,0.0126
2310.00,0.0116
2297.00,0.0120
2284.00,0.0126
2271.00,0.0122
2258.00,0.0119
2245.00,0.0118
2232.00,0.0117
2219.00,0.0117
2206.00,0.0118
2193.00,0.0121
2180.00,0.0117
2167.00,0.0126
2154.00,0.0095
2141.00,0.0102
2128.00,0.0105
2115.00,0.0116
2102.00,0.0115
2089.00,0.0113
2076.00,0.0114
2063.00,0.0111
2050.00,0.0121
2037.00,0.0112
2024.00,0.0105
2011.00,0.0104
1998.00,0.0103
1985.00,0.0110
1972.00,0.0096
1959.00,0.0093
1946.00,0.0098
1933.00,0.0098
1920.00,0.0102
1907.00,0.0105
1894.00,0.0103
1881.00,0.0101
1868.00,0.0102
1855.00,0.0100
1842.00,0.0100
1829.00,0.0099
1816.00,0.0096
1803.00,0.0098
1790.00,0.0097
1777.00,0.0097
1764.00,0.0097
1751.00,0.0097
1738.00,0.0098
1725.00,0.0105
1712.00,0.0123
1699.00,0.0208
1686.00,0.0480
1673.00,0.0800
1660.00,0.1023
1647.00,0.1049
1634.00,0.0770
1621.00,0.0684
1608.00,0.0495
1595.00,0.0335
1582.00,0.0380
1569.00,0.0288
1556.00,0.0219
1543.00,0.0202
1530.00,0.0189
1517.00,0.0193
1504.00,0.0235
1491.00,0.0344
1478.00,0.0226
1465.00,0.0471
1452.00,0.0419
1439.00,0.0612
1426.00,0.0761
1413.00,0.0560
1400.00,0.0453
1387.00,0.0370
1374.00,0.0398
1361.00,0.0403
1348.00,0.0322
1335.00,0.0288
1322.00,0.0364
1309.00,0.0353
1296.00,0.0560
1283.00,0.0863
1270.00,0.0785
1257.00,0.0531
1244.00,0.0467
1231.00,0.0546
1218.00,0.0502
1205.00,0.0428
1192.00,0.0471
1179.00,0.0371
1166.00,0.0386
1153.00,0.0451
1140.00,0.0319
1127.00,0.0449
1114.00,0.0339
1101.00,0.0373
1088.00,0.0308
1075.00,0.0309
1062.00,0.0341
1049.00,0.0510
1036.00,0.0364
1023.00,0.0454
1010.00,0.0332
997.00,0.0355
984.00,0.0291
971.00,0.0274
958.00,0.0265
945.00,0.0255
932.00,0.0301
919.00,0.0284
906.00,0.0259
893.00,0.0289
880.00,0.0261
867.00,0.0368
854.00,0.0357
841.00,0.0384
828.00,0.0357
815.00,0.0432
802.00,0.0275
789.00,0.0269
776.00,0.0291
763.00,0.0304
750.00,0.0348
737.00,0.0439
724.00,0.0409
711.00,0.0390
698.00,0.0408
685.00,0.0440
672.00,0.0502
659.00,0.0577
646.00,0.0628
633.00,0.0580
620.00,0.0581
607.00,0.0583
594.00,0.0637
581.00,0.0707
568.00,0.0734
555.00,0.0711
542.00,0.0706
529.00,0.0705
516.00,0.0662
503.00,0.0665
490.00,0.0671
477.00,0.0665
464.00,0.0665
451.00,0.0647
438.00,0.0619
425.00,0.0599
412.00,0.0576
400.00,0.0571

File: 2025_08_04_1CBN_3PVP10kDa_MortPest_powder_scan2.csv
Created as New Dataset,Sample 1033 By YargerLab Date Monday, August 04 2025
cm-1,A
4000.00,0.0102
3987.00,0.0101
3974.00,0.0102
3961.00,0.0101
3948.00,0.0100
3935.00,0.0101
3922.00,0.0100
3909.00,0.0101
3896.00,0.0099
3883.00,0.0099
3870.00,0.0099
3857.00,0.0101
3844.00,0.0099
3831.00,0.0098
3818.00,0.0098
3805.00,0.0099
3792.00,0.0100
3779.00,0.0098
3766.00,0.0098
3753.00,0.0098
3740.00,0.0096
3727.00,0.0097
3714.00,0.0097
3701.00,0.0098
3688.00,0.0097
3675.00,0.0099
3662.00,0.0103
3649.00,0.0102
3636.00,0.0110
3623.00,0.0114
3610.00,0.0121
3597.00,0.0132
3584.00,0.0143
3571.00,0.0157
3558.00,0.0170
3545.00,0.0181
3532.00,0.0192
3519.00,0.0200
3506.00,0.0207
3493.00,0.0214
3480.00,0.0223
3467.00,0.0232
3454.00,0.0242
3441.00,0.0251
3428.00,0.0263
3415.00,0.0276
3402.00,0.0282
3389.00,0.0275
3376.00,0.0262
3363.00,0.0250
3350.00,0.0240
3337.00,0.0235
3324.00,0.0232
3311.00,0.0231
3298.00,0.0233
3285.00,0.0237
3272.00,0.0236
3259.00,0.0239
3246.00,0.0238
3233.00,0.0236
3220.00,0.0230
3207.00,0.0220
3194.00,0.0208
3181.00,0.0197
3168.00,0.0186
3155.00,0.0174
3142.00,0.0164
3129.00,0.0157
3116.00,0.0151
3103.00,0.0144
3090.00,0.0143
3077.00,0.0141
3064.00,0.0138
3051.00,0.0139
3038.00,0.0139
3025.00,0.0139
3012.00,0.0140
2999.00,0.0168
2986.00,0.0222
2973.00,0.0284
2960.00,0.0343
2947.00,0.0311
2934.00,0.0370
2921.00,0.0411
2908.00,0.0320
2895.00,0.0281
2882.00,0.0270
2869.00,0.0287
2856.00,0.0329
2843.00,0.0240
2830.00,0.0188
2817.00,0.0164
2804.00,0.0153
2791.00,0.0147
2778.00,0.0142
2765.00,0.0139
2752.00,0.0138
2739.00,0.0139
2726.00,0.0140
2713.00,0.0137
2700.00,0.0136
2687.00,0.0133
2674.00,0.0133
2661.00,0.0136
2648.00,0.0138
2635.00,0.0135
2622.00,0.0133
2609.00,0.0132
2596.00,0.0131
2583.00,0.0132
2570.00,0.0130
2557.00,0.0129
2544.00,0.0127
2531.00,0.0126
2518.00,0.0125
2505.00,0.0123
2492.00,0.0122
2479.00,0.0121
2466.00,0.0119
2453.00,0.0121
2440.00,0.0121
2427.00,0.0119
2414.00,0.0120
2401.00,0.0118
2388.00,0.0117
2375.00,0.0115
2362.00,0.0115
2349.00,0.0117
2336.00,0.0119
2323.00,0.0129
2310.00,0.0119
2297.00,0.0124
2284.00,0.0128
2271.00,0.0123
2258.00,0.0120
2245.00,0.0118
2232.00,0.0120
2219.00,0.0119
2206.00,0.0119
2193.00,0.0122
2180.00,0.0117
2167.00,0.0126
2154.00,0.0093
2141.00,0.0103
2128.00,0.0106
2115.00,0.0116
2102.00,0.0116
2089.00,0.0115
2076.00,0.0116
2063.00,0.0111
2050.00,0.0120
2037.00,0.0110
2024.00,0.0104
2011.00,0.0102
1998.00,0.0101
1985.00,0.0108
1972.00,0.0094
1959.00,0.0092
1946.00,0.0099
1933.00,0.0098
1920.00,0.0103
1907.00,0.0107
1894.00,0.0105
1881.00,0.0102
1868.00,0.0104
1855.00,0.0101
1842.00,0.0102
1829.00,0.0101
1816.00,0.0097
1803.00,0.0102
1790.00,0.0099
1777.00,0.0101
1764.00,0.0102
1751.00,0.0104
1738.00,0.0104
1725.00,0.0116
1712.00,0.0141
1699.00,0.0260
1686.00,0.0602
1673.00,0.0972
1660.00,0.1201
1647.00,0.1180
1634.00,0.0818
1621.00,0.0771
1608.00,0.0548
1595.00,0.0356
1582.00,0.0433
1569.00,0.0314
1556.00,0.0229
1543.00,0.0210
1530.00,0.0196
1517.00,0.0207
1504.00,0.0260
1491.00,0.0391
1478.00,0.0248
1465.00,0.0537
1452.00,0.0480
1439.00,0.0702
1426.00,0.0904
1413.00,0.0661
1400.00,0.0537
1387.00,0.0425
1374.00,0.0454
1361.00,0.0471
1348.00,0.0366
1335.00,0.0322
1322.00,0.0409
1309.00,0.0401
1296.00,0.0642
1283.00,0.1019
1270.00,0.0915
1257.00,0.0606
1244.00,0.0535
1231.00,0.0635
1218.00,0.0572
1205.00,0.0476
1192.00,0.0541
1179.00,0.0402
1166.00,0.0423
1153.00,0.0517
1140.00,0.0341
1127.00,0.0520
1114.00,0.0367
1101.00,0.0415
1088.00,0.0323
1075.00,0.0325
1062.00,0.0376
1049.00,0.0603
1036.00,0.0403
1023.00,0.0518
1010.00,0.0355
997.00,0.0384
984.00,0.0301
971.00,0.0281
958.00,0.0270
945.00,0.0258
932.00,0.0319
919.00,0.0298
906.00,0.0264
893.00,0.0304
880.00,0.0270
867.00,0.0415
854.00,0.0396
841.00,0.0424
828.00,0.0387
815.00,0.0490
802.00,0.0274
789.00,0.0266
776.00,0.0294
763.00,0.0307
750.00,0.0355
737.00,0.0469
724.00,0.0424
711.00,0.0400
698.00,0.0422
685.00,0.0461
672.00,0.0537
659.00,0.0623
646.00,0.0672
633.00,0.0610
620.00,0.0613
607.00,0.0614
594.00,0.0681
581.00,0.0757
568.00,0.0787
555.00,0.0761
542.00,0.0748
529.00,0.0744
516.00,0.0681
503.00,0.0693
490.00,0.0703
477.00,0.0693
464.00,0.0690
451.00,0.0667
438.00,0.0646
425.00,0.0604
412.00,0.0595
400.00,0.0552

File: 2025_08_04_1CBN_3PVP10kDa_MortPest_powder_scan3.csv
Created as New Dataset,Sample 1034 By YargerLab Date Monday, August 04 2025
cm-1,A
4000.00,0.0046
3987.00,0.0046
3974.00,0.0046
3961.00,0.0046
3948.00,0.0045
3935.00,0.0046
3922.00,0.0046
3909.00,0.0046
3896.00,0.0044
3883.00,0.0044
3870.00,0.0044
3857.00,0.0046
3844.00,0.0044
3831.00,0.0044
3818.00,0.0043
3805.00,0.0045
3792.00,0.0045
3779.00,0.0044
3766.00,0.0045
3753.00,0.0045
3740.00,0.0041
3727.00,0.0042
3714.00,0.0043
3701.00,0.0043
3688.00,0.0043
3675.00,0.0043
3662.00,0.0045
3649.00,0.0044
3636.00,0.0047
3623.00,0.0048
3610.00,0.0051
3597.00,0.0056
3584.00,0.0059
3571.00,0.0066
3558.00,0.0072
3545.00,0.0077
3532.00,0.0083
3519.00,0.0087
3506.00,0.0091
3493.00,0.0096
3480.00,0.0101
3467.00,0.0108
3454.00,0.0114
3441.00,0.0122
3428.00,0.0133
3415.00,0.0144
3402.00,0.0151
3389.00,0.0147
3376.00,0.0139
3363.00,0.0130
3350.00,0.0124
3337.00,0.0121
3324.00,0.0120
3311.00,0.0121
3298.00,0.0123
3285.00,0.0127
3272.00,0.0130
3259.00,0.0133
3246.00,0.0135
3233.00,0.0134
3220.00,0.0131
3207.00,0.0125
3194.00,0.0117
3181.00,0.0107
3168.00,0.0098
3155.00,0.0090
3142.00,0.0083
3129.00,0.0077
3116.00,0.0074
3103.00,0.0069
3090.00,0.0068
3077.00,0.0068
3064.00,0.0065
3051.00,0.0066
3038.00,0.0066
3025.00,0.0066
3012.00,0.0065
2999.00,0.0081
2986.00,0.0110
2973.00,0.0147
2960.00,0.0181
2947.00,0.0156
2934.00,0.0206
2921.00,0.0218
2908.00,0.0159
2895.00,0.0133
2882.00,0.0125
2869.00,0.0141
2856.00,0.0173
2843.00,0.0113
2830.00,0.0083
2817.00,0.0071
2804.00,0.0066
2791.00,0.0063
2778.00,0.0060
2765.00,0.0059
2752.00,0.0059
2739.00,0.0060
2726.00,0.0060
2713.00,0.0059
2700.00,0.0059
2687.00,0.0057
2674.00,0.0057
2661.00,0.0060
2648.00,0.0062
2635.00,0.0060
2622.00,0.0058
2609.00,0.0057
2596.00,0.0057
2583.00,0.0057
2570.00,0.0055
2557.00,0.0054
2544.00,0.0053
2531.00,0.0053
2518.00,0.0051
2505.00,0.0051
2492.00,0.0049
2479.00,0.0049
2466.00,0.0047
2453.00,0.0050
2440.00,0.0048
2427.00,0.0047
2414.00,0.0047
2401.00,0.0045
2388.00,0.0045
2375.00,0.0042
2362.00,0.0043
2349.00,0.0043
2336.00,0.0046
2323.00,0.0056
2310.00,0.0047
2297.00,0.0051
2284.00,0.0057
2271.00,0.0051
2258.00,0.0051
2245.00,0.0048
2232.00,0.0048
2219.00,0.0048
2206.00,0.0047
2193.00,0.0048
2180.00,0.0045
2167.00,0.0055
2154.00,0.0025
2141.00,0.0032
2128.00,0.0033
2115.00,0.0044
2102.00,0.0043
2089.00,0.0044
2076.00,0.0044
2063.00,0.0042
2050.00,0.0053
2037.00,0.0043
2024.00,0.0038
2011.00,0.0038
1998.00,0.0036
1985.00,0.0043
1972.00,0.0032
1959.00,0.0027
1946.00,0.0032
1933.00,0.0033
1920.00,0.0036
1907.00,0.0040
1894.00,0.0039
1881.00,0.0037
1868.00,0.0038
1855.00,0.0037
1842.00,0.0038
1829.00,0.0036
1816.00,0.0035
1803.00,0.0038
1790.00,0.0037
1777.00,0.0038
1764.00,0.0039
1751.00,0.0039
1738.00,0.0040
1725.00,0.0046
1712.00,0.0057
1699.00,0.0099
1686.00,0.0228
1673.00,0.0347
1660.00,0.0422
1647.00,0.0418
1634.00,0.0308
1621.00,0.0360
1608.00,0.0253
1595.00,0.0153
1582.00,0.0223
1569.00,0.0144
1556.00,0.0092
1543.00,0.0079
1530.00,0.0077
1517.00,0.0085
1504.00,0.0114
1491.00,0.0170
1478.00,0.0105
1465.00,0.0234
1452.00,0.0210
1439.00,0.0306
1426.00,0.0378
1413.00,0.0279
1400.00,0.0277
1387.00,0.0204
1374.00,0.0199
1361.00,0.0230
1348.00,0.0176
1335.00,0.0145
1322.00,0.0176
1309.00,0.0175
1296.00,0.0279
1283.00,0.0407
1270.00,0.0344
1257.00,0.0233
1244.00,0.0230
1231.00,0.0281
1218.00,0.0242
1205.00,0.0202
1192.00,0.0256
1179.00,0.0167
1166.00,0.0172
1153.00,0.0258
1140.00,0.0144
1127.00,0.0271
1114.00,0.0163
1101.00,0.0197
1088.00,0.0134
1075.00,0.0135
1062.00,0.0182
1049.00,0.0334
1036.00,0.0193
1023.00,0.0259
1010.00,0.0154
997.00,0.0172
984.00,0.0126
971.00,0.0118
958.00,0.0113
945.00,0.0107
932.00,0.0135
919.00,0.0128
906.00,0.0108
893.00,0.0129
880.00,0.0115
867.00,0.0204
854.00,0.0178
841.00,0.0183
828.00,0.0173
815.00,0.0240
802.00,0.0111
789.00,0.0107
776.00,0.0123
763.00,0.0125
750.00,0.0143
737.00,0.0200
724.00,0.0176
711.00,0.0167
698.00,0.0177
685.00,0.0192
672.00,0.0225
659.00,0.0251
646.00,0.0258
633.00,0.0236
620.00,0.0244
607.00,0.0244
594.00,0.0274
581.00,0.0296
568.00,0.0298
555.00,0.0297
542.00,0.0297
529.00,0.0299
516.00,0.0267
503.00,0.0271
490.00,0.0274
477.00,0.0270
464.00,0.0269
451.00,0.0261
438.00,0.0248
425.00,0.0234
412.00,0.0234
400.00,0.0195

File: 2025_08_04_1CBN_3PVP29kDa_MortPest_powder_scan1.csv
Created as New Dataset,Sample 1039 By YargerLab Date Monday, August 04 2025
cm-1,A
4000.00,0.0067
3987.00,0.0068
3974.00,0.0068
3961.00,0.0067
3948.00,0.0067
3935.00,0.0067
3922.00,0.0067
3909.00,0.0067
3896.00,0.0067
3883.00,0.0067
3870.00,0.0066
3857.00,0.0067
3844.00,0.0067
3831.00,0.0067
3818.00,0.0067
3805.00,0.0067
3792.00,0.0066
3779.00,0.0067
3766.00,0.0067
3753.00,0.0068
3740.00,0.0068
3727.00,0.0066
3714.00,0.0066
3701.00,0.0066
3688.00,0.0068
3675.00,0.0072
3662.00,0.0076
3649.00,0.0082
3636.00,0.0089
3623.00,0.0100
3610.00,0.0113
3597.00,0.0127
3584.00,0.0144
3571.00,0.0165
3558.00,0.0185
3545.00,0.0206
3532.00,0.0224
3519.00,0.0240
3506.00,0.0253
3493.00,0.0265
3480.00,0.0279
3467.00,0.0293
3454.00,0.0308
3441.00,0.0323
3428.00,0.0341
3415.00,0.0361
3402.00,0.0371
3389.00,0.0363
3376.00,0.0346
3363.00,0.0327
3350.00,0.0312
3337.00,0.0303
3324.00,0.0298
3311.00,0.0297
3298.00,0.0300
3285.00,0.0305
3272.00,0.0303
3259.00,0.0306
3246.00,0.0304
3233.00,0.0296
3220.00,0.0286
3207.00,0.0269
3194.00,0.0249
3181.00,0.0229
3168.00,0.0210
3155.00,0.0191
3142.00,0.0175
3129.00,0.0162
3116.00,0.0152
3103.00,0.0142
3090.00,0.0137
3077.00,0.0133
3064.00,0.0129
3051.00,0.0128
3038.00,0.0128
3025.00,0.0128
3012.00,0.0130
2999.00,0.0169
2986.00,0.0233
2973.00,0.0307
2960.00,0.0380
2947.00,0.0340
2934.00,0.0424
2921.00,0.0462
2908.00,0.0339
2895.00,0.0292
2882.00,0.0276
2869.00,0.0295
2856.00,0.0352
2843.00,0.0227
2830.00,0.0163
2817.00,0.0136
2804.00,0.0124
2791.00,0.0117
2778.00,0.0111
2765.00,0.0108
2752.00,0.0107
2739.00,0.0108
2726.00,0.0110
2713.00,0.0106
2700.00,0.0104
2687.00,0.0102
2674.00,0.0101
2661.00,0.0106
2648.00,0.0107
2635.00,0.0104
2622.00,0.0101
2609.00,0.0099
2596.00,0.0100
2583.00,0.0101
2570.00,0.0099
2557.00,0.0097
2544.00,0.0095
2531.00,0.0095
2518.00,0.0092
2505.00,0.0091
2492.00,0.0090
2479.00,0.0088
2466.00,0.0088
2453.00,0.0089
2440.00,0.0088
2427.00,0.0087
2414.00,0.0087
2401.00,0.0087
2388.00,0.0084
2375.00,0.0083
2362.00,0.0083
2349.00,0.0086
2336.00,0.0090
2323.00,0.0099
2310.00,0.0090
2297.00,0.0093
2284.00,0.0098
2271.00,0.0093
2258.00,0.0089
2245.00,0.0089
2232.00,0.0093
2219.00,0.0089
2206.00,0.0088
2193.00,0.0092
2180.00,0.0086
2167.00,0.0098
2154.00,0.0066
2141.00,0.0072
2128.00,0.0075
2115.00,0.0089
2102.00,0.0086
2089.00,0.0085
2076.00,0.0088
2063.00,0.0082
2050.00,0.0088
2037.00,0.0084
2024.00,0.0073
2011.00,0.0069
1998.00,0.0073
1985.00,0.0078
1972.00,0.0065
1959.00,0.0061
1946.00,0.0068
1933.00,0.0070
1920.00,0.0074
1907.00,0.0080
1894.00,0.0076
1881.00,0.0074
1868.00,0.0075
1855.00,0.0076
1842.00,0.0076
1829.00,0.0075
1816.00,0.0073
1803.00,0.0077
1790.00,0.0078
1777.00,0.0081
1764.00,0.0084
1751.00,0.0087
1738.00,0.0095
1725.00,0.0116
1712.00,0.0155
1699.00,0.0278
1686.00,0.0603
1673.00,0.1025
1660.00,0.1367
1647.00,0.1487
1634.00,0.1189
1621.00,0.1057
1608.00,0.0711
1595.00,0.0436
1582.00,0.0510
1569.00,0.0345
1556.00,0.0233
1543.00,0.0203
1530.00,0.0190
1517.00,0.0204
1504.00,0.0288
1491.00,0.0447
1478.00,0.0266
1465.00,0.0671
1452.00,0.0574
1439.00,0.0889
1426.00,0.1059
1413.00,0.0731
1400.00,0.0596
1387.00,0.0469
1374.00,0.0500
1361.00,0.0512
1348.00,0.0398
1335.00,0.0352
1322.00,0.0477
1309.00,0.0462
1296.00,0.0813
1283.00,0.1199
1270.00,0.1044
1257.00,0.0666
1244.00,0.0601
1231.00,0.0711
1218.00,0.0630
1205.00,0.0516
1192.00,0.0588
1179.00,0.0427
1166.00,0.0443
1153.00,0.0542
1140.00,0.0335
1127.00,0.0557
1114.00,0.0378
1101.00,0.0444
1088.00,0.0337
1075.00,0.0356
1062.00,0.0429
1049.00,0.0686
1036.00,0.0446
1023.00,0.0575
1010.00,0.0378
997.00,0.0414
984.00,0.0311
971.00,0.0283
958.00,0.0264
945.00,0.0254
932.00,0.0323
919.00,0.0298
906.00,0.0264
893.00,0.0317
880.00,0.0284
867.00,0.0449
854.00,0.0441
841.00,0.0476
828.00,0.0438
815.00,0.0565
802.00,0.0327
789.00,0.0333
776.00,0.0373
763.00,0.0405
750.00,0.0478
737.00,0.0624
724.00,0.0578
711.00,0.0562
698.00,0.0596
685.00,0.0652
672.00,0.0747
659.00,0.0850
646.00,0.0919
633.00,0.0857
620.00,0.0866
607.00,0.0867
594.00,0.0947
581.00,0.1033
568.00,0.1069
555.00,0.1037
542.00,0.1029
529.00,0.1023
516.00,0.0955
503.00,0.0952
490.00,0.0966
477.00,0.0956
464.00,0.0947
451.00,0.0917
438.00,0.0888
425.00,0.0855
412.00,0.0853
400.00,0.0861