Folder: Data/FTIR/Olivia (part 17)

File: 2025_08_04_1CBN_3PVP29kDa_MortPest_powder_scan2.csv
Created as New Dataset,Sample 1040 By YargerLab Date Monday, August 04 2025
cm-1,A
4000.00,0.0067
3987.00,0.0068
3974.00,0.0068
3961.00,0.0068
3948.00,0.0068
3935.00,0.0068
3922.00,0.0068
3909.00,0.0068
3896.00,0.0068
3883.00,0.0068
3870.00,0.0068
3857.00,0.0068
3844.00,0.0068
3831.00,0.0068
3818.00,0.0069
3805.00,0.0068
3792.00,0.0067
3779.00,0.0068
3766.00,0.0068
3753.00,0.0069
3740.00,0.0069
3727.00,0.0067
3714.00,0.0067
3701.00,0.0066
3688.00,0.0068
3675.00,0.0070
3662.00,0.0072
3649.00,0.0077
3636.00,0.0081
3623.00,0.0088
3610.00,0.0097
3597.00,0.0107
3584.00,0.0119
3571.00,0.0131
3558.00,0.0146
3545.00,0.0161
3532.00,0.0173
3519.00,0.0184
3506.00,0.0193
3493.00,0.0203
3480.00,0.0216
3467.00,0.0229
3454.00,0.0244
3441.00,0.0261
3428.00,0.0281
3415.00,0.0304
3402.00,0.0316
3389.00,0.0308
3376.00,0.0290
3363.00,0.0273
3350.00,0.0260
3337.00,0.0253
3324.00,0.0252
3311.00,0.0253
3298.00,0.0258
3285.00,0.0266
3272.00,0.0268
3259.00,0.0274
3246.00,0.0276
3233.00,0.0272
3220.00,0.0265
3207.00,0.0249
3194.00,0.0230
3181.00,0.0211
3168.00,0.0193
3155.00,0.0175
3142.00,0.0160
3129.00,0.0149
3116.00,0.0140
3103.00,0.0130
3090.00,0.0127
3077.00,0.0124
3064.00,0.0121
3051.00,0.0120
3038.00,0.0122
3025.00,0.0121
3012.00,0.0121
2999.00,0.0154
2986.00,0.0212
2973.00,0.0284
2960.00,0.0356
2947.00,0.0307
2934.00,0.0407
2921.00,0.0443
2908.00,0.0317
2895.00,0.0266
2882.00,0.0250
2869.00,0.0276
2856.00,0.0345
2843.00,0.0217
2830.00,0.0156
2817.00,0.0131
2804.00,0.0121
2791.00,0.0113
2778.00,0.0108
2765.00,0.0106
2752.00,0.0105
2739.00,0.0107
2726.00,0.0109
2713.00,0.0105
2700.00,0.0103
2687.00,0.0101
2674.00,0.0100
2661.00,0.0104
2648.00,0.0105
2635.00,0.0103
2622.00,0.0099
2609.00,0.0098
2596.00,0.0099
2583.00,0.0100
2570.00,0.0098
2557.00,0.0095
2544.00,0.0093
2531.00,0.0094
2518.00,0.0091
2505.00,0.0090
2492.00,0.0089
2479.00,0.0088
2466.00,0.0087
2453.00,0.0088
2440.00,0.0087
2427.00,0.0086
2414.00,0.0085
2401.00,0.0085
2388.00,0.0084
2375.00,0.0081
2362.00,0.0081
2349.00,0.0083
2336.00,0.0086
2323.00,0.0094
2310.00,0.0088
2297.00,0.0091
2284.00,0.0094
2271.00,0.0089
2258.00,0.0084
2245.00,0.0085
2232.00,0.0086
2219.00,0.0084
2206.00,0.0084
2193.00,0.0086
2180.00,0.0081
2167.00,0.0093
2154.00,0.0064
2141.00,0.0070
2128.00,0.0074
2115.00,0.0083
2102.00,0.0081
2089.00,0.0080
2076.00,0.0083
2063.00,0.0078
2050.00,0.0081
2037.00,0.0076
2024.00,0.0069
2011.00,0.0066
1998.00,0.0070
1985.00,0.0075
1972.00,0.0063
1959.00,0.0062
1946.00,0.0070
1933.00,0.0069
1920.00,0.0072
1907.00,0.0079
1894.00,0.0076
1881.00,0.0073
1868.00,0.0074
1855.00,0.0074
1842.00,0.0074
1829.00,0.0074
1816.00,0.0072
1803.00,0.0076
1790.00,0.0076
1777.00,0.0080
1764.00,0.0081
1751.00,0.0086
1738.00,0.0088
1725.00,0.0109
1712.00,0.0140
1699.00,0.0235
1686.00,0.0479
1673.00,0.0785
1660.00,0.1017
1647.00,0.1068
1634.00,0.0857
1621.00,0.0870
1608.00,0.0599
1595.00,0.0367
1582.00,0.0480
1569.00,0.0317
1556.00,0.0205
1543.00,0.0181
1530.00,0.0170
1517.00,0.0186
1504.00,0.0251
1491.00,0.0377
1478.00,0.0227
1465.00,0.0546
1452.00,0.0477
1439.00,0.0710
1426.00,0.0864
1413.00,0.0620
1400.00,0.0568
1387.00,0.0434
1374.00,0.0435
1361.00,0.0477
1348.00,0.0368
1335.00,0.0314
1322.00,0.0401
1309.00,0.0389
1296.00,0.0656
1283.00,0.0948
1270.00,0.0821
1257.00,0.0544
1244.00,0.0515
1231.00,0.0611
1218.00,0.0530
1205.00,0.0434
1192.00,0.0528
1179.00,0.0360
1166.00,0.0369
1153.00,0.0500
1140.00,0.0292
1127.00,0.0525
1114.00,0.0335
1101.00,0.0399
1088.00,0.0285
1075.00,0.0299
1062.00,0.0379
1049.00,0.0657
1036.00,0.0401
1023.00,0.0524
1010.00,0.0328
997.00,0.0364
984.00,0.0272
971.00,0.0249
958.00,0.0232
945.00,0.0222
932.00,0.0281
919.00,0.0264
906.00,0.0229
893.00,0.0277
880.00,0.0249
867.00,0.0421
854.00,0.0390
841.00,0.0410
828.00,0.0385
815.00,0.0522
802.00,0.0276
789.00,0.0274
776.00,0.0307
763.00,0.0326
750.00,0.0379
737.00,0.0508
724.00,0.0465
711.00,0.0448
698.00,0.0477
685.00,0.0521
672.00,0.0598
659.00,0.0673
646.00,0.0717
633.00,0.0668
620.00,0.0683
607.00,0.0682
594.00,0.0752
581.00,0.0815
568.00,0.0834
555.00,0.0816
542.00,0.0810
529.00,0.0805
516.00,0.0737
503.00,0.0734
490.00,0.0738
477.00,0.0731
464.00,0.0716
451.00,0.0707
438.00,0.0689
425.00,0.0669
412.00,0.0661
400.00,0.0660

File: 2025_08_04_1CBN_3PVP29kDa_MortPest_powder_scan3.csv
Created as New Dataset,Sample 1041 By YargerLab Date Monday, August 04 2025
cm-1,A
4000.00,0.0060
3987.00,0.0060
3974.00,0.0060
3961.00,0.0059
3948.00,0.0059
3935.00,0.0059
3922.00,0.0059
3909.00,0.0059
3896.00,0.0060
3883.00,0.0060
3870.00,0.0060
3857.00,0.0060
3844.00,0.0059
3831.00,0.0059
3818.00,0.0059
3805.00,0.0059
3792.00,0.0058
3779.00,0.0059
3766.00,0.0059
3753.00,0.0060
3740.00,0.0059
3727.00,0.0057
3714.00,0.0057
3701.00,0.0056
3688.00,0.0057
3675.00,0.0057
3662.00,0.0057
3649.00,0.0059
3636.00,0.0058
3623.00,0.0060
3610.00,0.0063
3597.00,0.0065
3584.00,0.0067
3571.00,0.0071
3558.00,0.0075
3545.00,0.0081
3532.00,0.0087
3519.00,0.0093
3506.00,0.0098
3493.00,0.0105
3480.00,0.0115
3467.00,0.0127
3454.00,0.0141
3441.00,0.0159
3428.00,0.0181
3415.00,0.0208
3402.00,0.0222
3389.00,0.0216
3376.00,0.0201
3363.00,0.0186
3350.00,0.0176
3337.00,0.0173
3324.00,0.0173
3311.00,0.0178
3298.00,0.0185
3285.00,0.0195
3272.00,0.0205
3259.00,0.0214
3246.00,0.0222
3233.00,0.0223
3220.00,0.0218
3207.00,0.0206
3194.00,0.0189
3181.00,0.0173
3168.00,0.0156
3155.00,0.0139
3142.00,0.0125
3129.00,0.0115
3116.00,0.0107
3103.00,0.0099
3090.00,0.0097
3077.00,0.0096
3064.00,0.0094
3051.00,0.0094
3038.00,0.0097
3025.00,0.0095
3012.00,0.0090
2999.00,0.0112
2986.00,0.0153
2973.00,0.0214
2960.00,0.0276
2947.00,0.0219
2934.00,0.0336
2921.00,0.0362
2908.00,0.0238
2895.00,0.0184
2882.00,0.0166
2869.00,0.0203
2856.00,0.0283
2843.00,0.0165
2830.00,0.0112
2817.00,0.0095
2804.00,0.0089
2791.00,0.0083
2778.00,0.0080
2765.00,0.0078
2752.00,0.0078
2739.00,0.0080
2726.00,0.0083
2713.00,0.0080
2700.00,0.0078
2687.00,0.0076
2674.00,0.0076
2661.00,0.0080
2648.00,0.0081
2635.00,0.0079
2622.00,0.0075
2609.00,0.0075
2596.00,0.0075
2583.00,0.0076
2570.00,0.0073
2557.00,0.0071
2544.00,0.0070
2531.00,0.0070
2518.00,0.0067
2505.00,0.0067
2492.00,0.0065
2479.00,0.0064
2466.00,0.0063
2453.00,0.0064
2440.00,0.0063
2427.00,0.0061
2414.00,0.0060
2401.00,0.0060
2388.00,0.0058
2375.00,0.0054
2362.00,0.0053
2349.00,0.0054
2336.00,0.0057
2323.00,0.0066
2310.00,0.0059
2297.00,0.0062
2284.00,0.0067
2271.00,0.0064
2258.00,0.0059
2245.00,0.0059
2232.00,0.0060
2219.00,0.0059
2206.00,0.0059
2193.00,0.0059
2180.00,0.0051
2167.00,0.0062
2154.00,0.0038
2141.00,0.0040
2128.00,0.0044
2115.00,0.0055
2102.00,0.0051
2089.00,0.0051
2076.00,0.0055
2063.00,0.0049
2050.00,0.0056
2037.00,0.0053
2024.00,0.0045
2011.00,0.0043
1998.00,0.0047
1985.00,0.0054
1972.00,0.0040
1959.00,0.0039
1946.00,0.0044
1933.00,0.0044
1920.00,0.0048
1907.00,0.0055
1894.00,0.0053
1881.00,0.0050
1868.00,0.0049
1855.00,0.0050
1842.00,0.0052
1829.00,0.0050
1816.00,0.0047
1803.00,0.0050
1790.00,0.0054
1777.00,0.0053
1764.00,0.0053
1751.00,0.0054
1738.00,0.0055
1725.00,0.0063
1712.00,0.0074
1699.00,0.0099
1686.00,0.0151
1673.00,0.0228
1660.00,0.0283
1647.00,0.0292
1634.00,0.0272
1621.00,0.0498
1608.00,0.0347
1595.00,0.0195
1582.00,0.0366
1569.00,0.0221
1556.00,0.0122
1543.00,0.0102
1530.00,0.0097
1517.00,0.0113
1504.00,0.0149
1491.00,0.0208
1478.00,0.0126
1465.00,0.0283
1452.00,0.0254
1439.00,0.0357
1426.00,0.0420
1413.00,0.0314
1400.00,0.0439
1387.00,0.0301
1374.00,0.0245
1361.00,0.0341
1348.00,0.0260
1335.00,0.0197
1322.00,0.0212
1309.00,0.0206
1296.00,0.0329
1283.00,0.0406
1270.00,0.0288
1257.00,0.0208
1244.00,0.0270
1231.00,0.0341
1218.00,0.0268
1205.00,0.0219
1192.00,0.0349
1179.00,0.0177
1166.00,0.0172
1153.00,0.0361
1140.00,0.0161
1127.00,0.0409
1114.00,0.0201
1101.00,0.0267
1088.00,0.0145
1075.00,0.0147
1062.00,0.0241
1049.00,0.0549
1036.00,0.0273
1023.00,0.0384
1010.00,0.0185
997.00,0.0218
984.00,0.0147
971.00,0.0137
958.00,0.0126
945.00,0.0116
932.00,0.0153
919.00,0.0153
906.00,0.0117
893.00,0.0151
880.00,0.0136
867.00,0.0310
854.00,0.0236
841.00,0.0223
828.00,0.0232
815.00,0.0383
802.00,0.0134
789.00,0.0124
776.00,0.0150
763.00,0.0144
750.00,0.0156
737.00,0.0246
724.00,0.0212
711.00,0.0207
698.00,0.0224
685.00,0.0236
672.00,0.0278
659.00,0.0288
646.00,0.0264
633.00,0.0250
620.00,0.0283
607.00,0.0283
594.00,0.0330
581.00,0.0333
568.00,0.0318
555.00,0.0331
542.00,0.0347
529.00,0.0342
516.00,0.0276
503.00,0.0275
490.00,0.0279
477.00,0.0259
464.00,0.0247
451.00,0.0253
438.00,0.0234
425.00,0.0214
412.00,0.0235
400.00,0.0247

File: 2025_08_04_1CBN_3PVP40kDa_MortPest_powder_scan1.csv
Created as New Dataset,Sample 1048 By YargerLab Date Monday, August 04 2025
cm-1,A
4000.00,0.0032
3987.00,0.0032
3974.00,0.0031
3961.00,0.0031
3948.00,0.0031
3935.00,0.0031
3922.00,0.0031
3909.00,0.0031
3896.00,0.0030
3883.00,0.0030
3870.00,0.0030
3857.00,0.0030
3844.00,0.0030
3831.00,0.0031
3818.00,0.0030
3805.00,0.0031
3792.00,0.0031
3779.00,0.0032
3766.00,0.0031
3753.00,0.0031
3740.00,0.0030
3727.00,0.0030
3714.00,0.0030
3701.00,0.0031
3688.00,0.0032
3675.00,0.0033
3662.00,0.0037
3649.00,0.0039
3636.00,0.0045
3623.00,0.0050
3610.00,0.0056
3597.00,0.0066
3584.00,0.0076
3571.00,0.0087
3558.00,0.0100
3545.00,0.0111
3532.00,0.0121
3519.00,0.0130
3506.00,0.0136
3493.00,0.0143
3480.00,0.0150
3467.00,0.0157
3454.00,0.0164
3441.00,0.0171
3428.00,0.0178
3415.00,0.0187
3402.00,0.0191
3389.00,0.0187
3376.00,0.0178
3363.00,0.0170
3350.00,0.0161
3337.00,0.0157
3324.00,0.0155
3311.00,0.0153
3298.00,0.0154
3285.00,0.0156
3272.00,0.0153
3259.00,0.0154
3246.00,0.0150
3233.00,0.0146
3220.00,0.0139
3207.00,0.0131
3194.00,0.0122
3181.00,0.0112
3168.00,0.0103
3155.00,0.0094
3142.00,0.0087
3129.00,0.0081
3116.00,0.0077
3103.00,0.0072
3090.00,0.0069
3077.00,0.0067
3064.00,0.0065
3051.00,0.0063
3038.00,0.0063
3025.00,0.0063
3012.00,0.0064
2999.00,0.0082
2986.00,0.0112
2973.00,0.0146
2960.00,0.0183
2947.00,0.0170
2934.00,0.0203
2921.00,0.0218
2908.00,0.0165
2895.00,0.0146
2882.00,0.0140
2869.00,0.0148
2856.00,0.0167
2843.00,0.0111
2830.00,0.0082
2817.00,0.0068
2804.00,0.0062
2791.00,0.0058
2778.00,0.0056
2765.00,0.0054
2752.00,0.0054
2739.00,0.0055
2726.00,0.0055
2713.00,0.0053
2700.00,0.0052
2687.00,0.0051
2674.00,0.0051
2661.00,0.0054
2648.00,0.0055
2635.00,0.0055
2622.00,0.0052
2609.00,0.0051
2596.00,0.0052
2583.00,0.0052
2570.00,0.0050
2557.00,0.0050
2544.00,0.0048
2531.00,0.0048
2518.00,0.0047
2505.00,0.0046
2492.00,0.0046
2479.00,0.0045
2466.00,0.0046
2453.00,0.0046
2440.00,0.0045
2427.00,0.0045
2414.00,0.0044
2401.00,0.0043
2388.00,0.0042
2375.00,0.0042
2362.00,0.0043
2349.00,0.0044
2336.00,0.0047
2323.00,0.0056
2310.00,0.0049
2297.00,0.0051
2284.00,0.0055
2271.00,0.0051
2258.00,0.0049
2245.00,0.0048
2232.00,0.0048
2219.00,0.0049
2206.00,0.0048
2193.00,0.0049
2180.00,0.0049
2167.00,0.0054
2154.00,0.0031
2141.00,0.0034
2128.00,0.0036
2115.00,0.0048
2102.00,0.0046
2089.00,0.0044
2076.00,0.0047
2063.00,0.0046
2050.00,0.0050
2037.00,0.0045
2024.00,0.0038
2011.00,0.0035
1998.00,0.0038
1985.00,0.0042
1972.00,0.0031
1959.00,0.0031
1946.00,0.0034
1933.00,0.0035
1920.00,0.0038
1907.00,0.0040
1894.00,0.0039
1881.00,0.0038
1868.00,0.0038
1855.00,0.0040
1842.00,0.0040
1829.00,0.0039
1816.00,0.0037
1803.00,0.0040
1790.00,0.0041
1777.00,0.0042
1764.00,0.0043
1751.00,0.0046
1738.00,0.0050
1725.00,0.0060
1712.00,0.0080
1699.00,0.0148
1686.00,0.0336
1673.00,0.0576
1660.00,0.0766
1647.00,0.0824
1634.00,0.0656
1621.00,0.0546
1608.00,0.0372
1595.00,0.0236
1582.00,0.0254
1569.00,0.0177
1556.00,0.0128
1543.00,0.0113
1530.00,0.0106
1517.00,0.0112
1504.00,0.0156
1491.00,0.0241
1478.00,0.0145
1465.00,0.0358
1452.00,0.0307
1439.00,0.0474
1426.00,0.0563
1413.00,0.0393
1400.00,0.0292
1387.00,0.0235
1374.00,0.0265
1361.00,0.0256
1348.00,0.0199
1335.00,0.0183
1322.00,0.0257
1309.00,0.0249
1296.00,0.0432
1283.00,0.0646
1270.00,0.0583
1257.00,0.0374
1244.00,0.0321
1231.00,0.0374
1218.00,0.0342
1205.00,0.0281
1192.00,0.0300
1179.00,0.0235
1166.00,0.0247
1153.00,0.0274
1140.00,0.0185
1127.00,0.0273
1114.00,0.0204
1101.00,0.0230
1088.00,0.0187
1075.00,0.0194
1062.00,0.0222
1049.00,0.0321
1036.00,0.0227
1023.00,0.0281
1010.00,0.0204
997.00,0.0218
984.00,0.0171
971.00,0.0157
958.00,0.0150
945.00,0.0146
932.00,0.0181
919.00,0.0165
906.00,0.0152
893.00,0.0180
880.00,0.0161
867.00,0.0230
854.00,0.0240
841.00,0.0263
828.00,0.0238
815.00,0.0283
802.00,0.0189
789.00,0.0192
776.00,0.0211
763.00,0.0233
750.00,0.0277
737.00,0.0349
724.00,0.0327
711.00,0.0317
698.00,0.0334
685.00,0.0366
672.00,0.0413
659.00,0.0473
646.00,0.0530
633.00,0.0499
620.00,0.0494
607.00,0.0495
594.00,0.0534
581.00,0.0589
568.00,0.0618
555.00,0.0596
542.00,0.0586
529.00,0.0584
516.00,0.0557
503.00,0.0554
490.00,0.0556
477.00,0.0562
464.00,0.0551
451.00,0.0541
438.00,0.0533
425.00,0.0530
412.00,0.0507
400.00,0.0497

File: 2025_08_04_1CBN_3PVP40kDa_MortPest_powder_scan2.csv
Created as New Dataset,Sample 1049 By YargerLab Date Monday, August 04 2025
cm-1,A
4000.00,0.0047
3987.00,0.0047
3974.00,0.0047
3961.00,0.0047
3948.00,0.0046
3935.00,0.0046
3922.00,0.0046
3909.00,0.0046
3896.00,0.0045
3883.00,0.0045
3870.00,0.0045
3857.00,0.0045
3844.00,0.0046
3831.00,0.0045
3818.00,0.0045
3805.00,0.0045
3792.00,0.0046
3779.00,0.0046
3766.00,0.0046
3753.00,0.0045
3740.00,0.0045
3727.00,0.0044
3714.00,0.0044
3701.00,0.0045
3688.00,0.0044
3675.00,0.0045
3662.00,0.0047
3649.00,0.0048
3636.00,0.0051
3623.00,0.0055
3610.00,0.0058
3597.00,0.0064
3584.00,0.0069
3571.00,0.0076
3558.00,0.0084
3545.00,0.0091
3532.00,0.0097
3519.00,0.0103
3506.00,0.0108
3493.00,0.0113
3480.00,0.0118
3467.00,0.0126
3454.00,0.0132
3441.00,0.0140
3428.00,0.0149
3415.00,0.0161
3402.00,0.0167
3389.00,0.0163
3376.00,0.0154
3363.00,0.0147
3350.00,0.0140
3337.00,0.0137
3324.00,0.0136
3311.00,0.0136
3298.00,0.0139
3285.00,0.0142
3272.00,0.0144
3259.00,0.0147
3246.00,0.0148
3233.00,0.0147
3220.00,0.0142
3207.00,0.0134
3194.00,0.0126
3181.00,0.0117
3168.00,0.0108
3155.00,0.0100
3142.00,0.0093
3129.00,0.0087
3116.00,0.0083
3103.00,0.0077
3090.00,0.0076
3077.00,0.0075
3064.00,0.0073
3051.00,0.0072
3038.00,0.0072
3025.00,0.0072
3012.00,0.0070
2999.00,0.0081
2986.00,0.0105
2973.00,0.0137
2960.00,0.0174
2947.00,0.0153
2934.00,0.0194
2921.00,0.0218
2908.00,0.0162
2895.00,0.0138
2882.00,0.0129
2869.00,0.0143
2856.00,0.0175
2843.00,0.0120
2830.00,0.0090
2817.00,0.0078
2804.00,0.0073
2791.00,0.0069
2778.00,0.0067
2765.00,0.0065
2752.00,0.0065
2739.00,0.0066
2726.00,0.0067
2713.00,0.0065
2700.00,0.0064
2687.00,0.0063
2674.00,0.0062
2661.00,0.0066
2648.00,0.0067
2635.00,0.0066
2622.00,0.0063
2609.00,0.0062
2596.00,0.0062
2583.00,0.0062
2570.00,0.0060
2557.00,0.0060
2544.00,0.0059
2531.00,0.0058
2518.00,0.0057
2505.00,0.0056
2492.00,0.0057
2479.00,0.0055
2466.00,0.0055
2453.00,0.0056
2440.00,0.0055
2427.00,0.0054
2414.00,0.0054
2401.00,0.0053
2388.00,0.0053
2375.00,0.0050
2362.00,0.0051
2349.00,0.0054
2336.00,0.0054
2323.00,0.0063
2310.00,0.0058
2297.00,0.0059
2284.00,0.0063
2271.00,0.0059
2258.00,0.0058
2245.00,0.0056
2232.00,0.0055
2219.00,0.0057
2206.00,0.0057
2193.00,0.0054
2180.00,0.0058
2167.00,0.0060
2154.00,0.0036
2141.00,0.0041
2128.00,0.0044
2115.00,0.0056
2102.00,0.0055
2089.00,0.0052
2076.00,0.0056
2063.00,0.0053
2050.00,0.0060
2037.00,0.0056
2024.00,0.0047
2011.00,0.0049
1998.00,0.0048
1985.00,0.0052
1972.00,0.0043
1959.00,0.0041
1946.00,0.0045
1933.00,0.0043
1920.00,0.0046
1907.00,0.0050
1894.00,0.0048
1881.00,0.0045
1868.00,0.0045
1855.00,0.0048
1842.00,0.0048
1829.00,0.0046
1816.00,0.0044
1803.00,0.0047
1790.00,0.0048
1777.00,0.0049
1764.00,0.0049
1751.00,0.0051
1738.00,0.0052
1725.00,0.0060
1712.00,0.0072
1699.00,0.0113
1686.00,0.0236
1673.00,0.0378
1660.00,0.0493
1647.00,0.0532
1634.00,0.0420
1621.00,0.0439
1608.00,0.0314
1595.00,0.0193
1582.00,0.0251
1569.00,0.0170
1556.00,0.0115
1543.00,0.0104
1530.00,0.0097
1517.00,0.0103
1504.00,0.0133
1491.00,0.0203
1478.00,0.0123
1465.00,0.0275
1452.00,0.0242
1439.00,0.0364
1426.00,0.0432
1413.00,0.0315
1400.00,0.0293
1387.00,0.0222
1374.00,0.0224
1361.00,0.0245
1348.00,0.0196
1335.00,0.0168
1322.00,0.0212
1309.00,0.0205
1296.00,0.0338
1283.00,0.0482
1270.00,0.0415
1257.00,0.0277
1244.00,0.0264
1231.00,0.0321
1218.00,0.0280
1205.00,0.0234
1192.00,0.0290
1179.00,0.0198
1166.00,0.0201
1153.00,0.0277
1140.00,0.0166
1127.00,0.0298
1114.00,0.0196
1101.00,0.0230
1088.00,0.0169
1075.00,0.0170
1062.00,0.0209
1049.00,0.0367
1036.00,0.0227
1023.00,0.0304
1010.00,0.0192
997.00,0.0214
984.00,0.0161
971.00,0.0149
958.00,0.0141
945.00,0.0134
932.00,0.0165
919.00,0.0157
906.00,0.0135
893.00,0.0159
880.00,0.0142
867.00,0.0237
854.00,0.0213
841.00,0.0222
828.00,0.0215
815.00,0.0286
802.00,0.0155
789.00,0.0151
776.00,0.0169
763.00,0.0178
750.00,0.0205
737.00,0.0266
724.00,0.0248
711.00,0.0240
698.00,0.0253
685.00,0.0273
672.00,0.0311
659.00,0.0344
646.00,0.0363
633.00,0.0341
620.00,0.0347
607.00,0.0348
594.00,0.0385
581.00,0.0412
568.00,0.0424
555.00,0.0421
542.00,0.0424
529.00,0.0427
516.00,0.0392
503.00,0.0394
490.00,0.0404
477.00,0.0402
464.00,0.0399
451.00,0.0385
438.00,0.0360
425.00,0.0330
412.00,0.0338
400.00,0.0327

File: 2025_08_04_1CBN_3PVP40kDa_MortPest_powder_scan3.csv
Created as New Dataset,Sample 1050 By YargerLab Date Monday, August 04 2025
cm-1,A
4000.00,0.0067
3987.00,0.0067
3974.00,0.0067
3961.00,0.0067
3948.00,0.0066
3935.00,0.0067
3922.00,0.0067
3909.00,0.0066
3896.00,0.0066
3883.00,0.0066
3870.00,0.0065
3857.00,0.0066
3844.00,0.0066
3831.00,0.0066
3818.00,0.0067
3805.00,0.0066
3792.00,0.0066
3779.00,0.0066
3766.00,0.0067
3753.00,0.0067
3740.00,0.0066
3727.00,0.0065
3714.00,0.0065
3701.00,0.0065
3688.00,0.0066
3675.00,0.0069
3662.00,0.0071
3649.00,0.0076
3636.00,0.0081
3623.00,0.0088
3610.00,0.0097
3597.00,0.0108
3584.00,0.0119
3571.00,0.0133
3558.00,0.0148
3545.00,0.0163
3532.00,0.0176
3519.00,0.0188
3506.00,0.0198
3493.00,0.0208
3480.00,0.0219
3467.00,0.0233
3454.00,0.0247
3441.00,0.0263
3428.00,0.0282
3415.00,0.0304
3402.00,0.0315
3389.00,0.0310
3376.00,0.0292
3363.00,0.0276
3350.00,0.0261
3337.00,0.0254
3324.00,0.0252
3311.00,0.0252
3298.00,0.0257
3285.00,0.0263
3272.00,0.0266
3259.00,0.0271
3246.00,0.0272
3233.00,0.0268
3220.00,0.0261
3207.00,0.0246
3194.00,0.0229
3181.00,0.0210
3168.00,0.0193
3155.00,0.0175
3142.00,0.0160
3129.00,0.0149
3116.00,0.0140
3103.00,0.0130
3090.00,0.0126
3077.00,0.0123
3064.00,0.0120
3051.00,0.0120
3038.00,0.0120
3025.00,0.0119
3012.00,0.0118
2999.00,0.0147
2986.00,0.0199
2973.00,0.0269
2960.00,0.0341
2947.00,0.0295
2934.00,0.0391
2921.00,0.0430
2908.00,0.0308
2895.00,0.0257
2882.00,0.0239
2869.00,0.0267
2856.00,0.0335
2843.00,0.0212
2830.00,0.0151
2817.00,0.0126
2804.00,0.0115
2791.00,0.0108
2778.00,0.0104
2765.00,0.0101
2752.00,0.0101
2739.00,0.0103
2726.00,0.0104
2713.00,0.0101
2700.00,0.0099
2687.00,0.0096
2674.00,0.0096
2661.00,0.0100
2648.00,0.0101
2635.00,0.0099
2622.00,0.0096
2609.00,0.0095
2596.00,0.0095
2583.00,0.0096
2570.00,0.0093
2557.00,0.0092
2544.00,0.0091
2531.00,0.0089
2518.00,0.0087
2505.00,0.0086
2492.00,0.0085
2479.00,0.0084
2466.00,0.0084
2453.00,0.0084
2440.00,0.0083
2427.00,0.0082
2414.00,0.0082
2401.00,0.0081
2388.00,0.0081
2375.00,0.0078
2362.00,0.0078
2349.00,0.0080
2336.00,0.0083
2323.00,0.0093
2310.00,0.0086
2297.00,0.0088
2284.00,0.0092
2271.00,0.0087
2258.00,0.0085
2245.00,0.0082
2232.00,0.0083
2219.00,0.0084
2206.00,0.0084
2193.00,0.0084
2180.00,0.0085
2167.00,0.0090
2154.00,0.0060
2141.00,0.0068
2128.00,0.0070
2115.00,0.0082
2102.00,0.0080
2089.00,0.0078
2076.00,0.0082
2063.00,0.0076
2050.00,0.0082
2037.00,0.0079
2024.00,0.0070
2011.00,0.0071
1998.00,0.0069
1985.00,0.0077
1972.00,0.0063
1959.00,0.0062
1946.00,0.0068
1933.00,0.0068
1920.00,0.0070
1907.00,0.0077
1894.00,0.0075
1881.00,0.0071
1868.00,0.0072
1855.00,0.0073
1842.00,0.0075
1829.00,0.0072
1816.00,0.0071
1803.00,0.0075
1790.00,0.0076
1777.00,0.0079
1764.00,0.0080
1751.00,0.0084
1738.00,0.0087
1725.00,0.0106
1712.00,0.0135
1699.00,0.0220
1686.00,0.0474
1673.00,0.0782
1660.00,0.1034
1647.00,0.1113
1634.00,0.0882
1621.00,0.0904
1608.00,0.0621
1595.00,0.0365
1582.00,0.0484
1569.00,0.0316
1556.00,0.0201
1543.00,0.0173
1530.00,0.0164
1517.00,0.0183
1504.00,0.0251
1491.00,0.0387
1478.00,0.0225
1465.00,0.0560
1452.00,0.0482
1439.00,0.0737
1426.00,0.0889
1413.00,0.0616
1400.00,0.0570
1387.00,0.0428
1374.00,0.0431
1361.00,0.0477
1348.00,0.0369
1335.00,0.0315
1322.00,0.0410
1309.00,0.0395
1296.00,0.0688
1283.00,0.0988
1270.00,0.0832
1257.00,0.0530
1244.00,0.0506
1231.00,0.0622
1218.00,0.0532
1205.00,0.0431
1192.00,0.0541
1179.00,0.0355
1166.00,0.0361
1153.00,0.0502
1140.00,0.0283
1127.00,0.0543
1114.00,0.0336
1101.00,0.0407
1088.00,0.0282
1075.00,0.0289
1062.00,0.0373
1049.00,0.0685
1036.00,0.0410
1023.00,0.0554
1010.00,0.0331
997.00,0.0370
984.00,0.0265
971.00,0.0243
958.00,0.0227
945.00,0.0216
932.00,0.0280
919.00,0.0262
906.00,0.0223
893.00,0.0278
880.00,0.0245
867.00,0.0433
854.00,0.0396
841.00,0.0416
828.00,0.0397
815.00,0.0552
802.00,0.0278
789.00,0.0276
776.00,0.0315
763.00,0.0337
750.00,0.0394
737.00,0.0531
724.00,0.0488
711.00,0.0474
698.00,0.0508
685.00,0.0548
672.00,0.0636
659.00,0.0711
646.00,0.0754
633.00,0.0704
620.00,0.0723
607.00,0.0723
594.00,0.0805
581.00,0.0868
568.00,0.0886
555.00,0.0873
542.00,0.0875
529.00,0.0874
516.00,0.0790
503.00,0.0794
490.00,0.0801
477.00,0.0790
464.00,0.0779
451.00,0.0762
438.00,0.0734
425.00,0.0705
412.00,0.0699
400.00,0.0676

File: 2025_08_04_1CBN_3PVP90kDa_MC_powder_scan1.csv
Created as New Dataset,Sample 1054 By YargerLab Date Monday, August 04 2025
cm-1,A
4000.00,0.0033
3987.00,0.0033
3974.00,0.0033
3961.00,0.0032
3948.00,0.0032
3935.00,0.0033
3922.00,0.0032
3909.00,0.0032
3896.00,0.0031
3883.00,0.0031
3870.00,0.0031
3857.00,0.0032
3844.00,0.0031
3831.00,0.0031
3818.00,0.0030
3805.00,0.0031
3792.00,0.0030
3779.00,0.0031
3766.00,0.0031
3753.00,0.0031
3740.00,0.0030
3727.00,0.0029
3714.00,0.0029
3701.00,0.0028
3688.00,0.0028
3675.00,0.0029
3662.00,0.0030
3649.00,0.0031
3636.00,0.0032
3623.00,0.0035
3610.00,0.0038
3597.00,0.0040
3584.00,0.0044
3571.00,0.0049
3558.00,0.0055
3545.00,0.0062
3532.00,0.0068
3519.00,0.0075
3506.00,0.0084
3493.00,0.0093
3480.00,0.0108
3467.00,0.0126
3454.00,0.0147
3441.00,0.0171
3428.00,0.0203
3415.00,0.0239
3402.00,0.0262
3389.00,0.0255
3376.00,0.0231
3363.00,0.0210
3350.00,0.0196
3337.00,0.0188
3324.00,0.0189
3311.00,0.0195
3298.00,0.0206
3285.00,0.0220
3272.00,0.0233
3259.00,0.0247
3246.00,0.0259
3233.00,0.0264
3220.00,0.0260
3207.00,0.0245
3194.00,0.0224
3181.00,0.0200
3168.00,0.0176
3155.00,0.0153
3142.00,0.0133
3129.00,0.0117
3116.00,0.0106
3103.00,0.0092
3090.00,0.0091
3077.00,0.0090
3064.00,0.0087
3051.00,0.0089
3038.00,0.0092
3025.00,0.0089
3012.00,0.0082
2999.00,0.0113
2986.00,0.0171
2973.00,0.0268
2960.00,0.0361
2947.00,0.0271
2934.00,0.0445
2921.00,0.0535
2908.00,0.0333
2895.00,0.0240
2882.00,0.0204
2869.00,0.0264
2856.00,0.0413
2843.00,0.0221
2830.00,0.0120
2817.00,0.0091
2804.00,0.0079
2791.00,0.0070
2778.00,0.0064
2765.00,0.0062
2752.00,0.0062
2739.00,0.0066
2726.00,0.0070
2713.00,0.0065
2700.00,0.0063
2687.00,0.0059
2674.00,0.0059
2661.00,0.0065
2648.00,0.0065
2635.00,0.0062
2622.00,0.0057
2609.00,0.0056
2596.00,0.0059
2583.00,0.0059
2570.00,0.0056
2557.00,0.0052
2544.00,0.0052
2531.00,0.0052
2518.00,0.0049
2505.00,0.0046
2492.00,0.0044
2479.00,0.0043
2466.00,0.0042
2453.00,0.0043
2440.00,0.0041
2427.00,0.0040
2414.00,0.0040
2401.00,0.0038
2388.00,0.0037
2375.00,0.0033
2362.00,0.0032
2349.00,0.0034
2336.00,0.0036
2323.00,0.0047
2310.00,0.0038
2297.00,0.0041
2284.00,0.0048
2271.00,0.0041
2258.00,0.0036
2245.00,0.0036
2232.00,0.0038
2219.00,0.0037
2206.00,0.0037
2193.00,0.0037
2180.00,0.0033
2167.00,0.0047
2154.00,0.0013
2141.00,0.0018
2128.00,0.0022
2115.00,0.0032
2102.00,0.0029
2089.00,0.0028
2076.00,0.0031
2063.00,0.0029
2050.00,0.0032
2037.00,0.0032
2024.00,0.0023
2011.00,0.0020
1998.00,0.0024
1985.00,0.0031
1972.00,0.0018
1959.00,0.0015
1946.00,0.0021
1933.00,0.0024
1920.00,0.0028
1907.00,0.0044
1894.00,0.0037
1881.00,0.0030
1868.00,0.0029
1855.00,0.0032
1842.00,0.0036
1829.00,0.0030
1816.00,0.0029
1803.00,0.0032
1790.00,0.0037
1777.00,0.0039
1764.00,0.0040
1751.00,0.0039
1738.00,0.0043
1725.00,0.0056
1712.00,0.0070
1699.00,0.0101
1686.00,0.0201
1673.00,0.0288
1660.00,0.0359
1647.00,0.0370
1634.00,0.0361
1621.00,0.0779
1608.00,0.0572
1595.00,0.0280
1582.00,0.0575
1569.00,0.0332
1556.00,0.0145
1543.00,0.0110
1530.00,0.0103
1517.00,0.0137
1504.00,0.0199
1491.00,0.0304
1478.00,0.0159
1465.00,0.0434
1452.00,0.0376
1439.00,0.0545
1426.00,0.0660
1413.00,0.0472
1400.00,0.0699
1387.00,0.0465
1374.00,0.0368
1361.00,0.0548
1348.00,0.0415
1335.00,0.0299
1322.00,0.0323
1309.00,0.0307
1296.00,0.0534
1283.00,0.0663
1270.00,0.0430
1257.00,0.0290
1244.00,0.0409
1231.00,0.0571
1218.00,0.0421
1205.00,0.0331
1192.00,0.0603
1179.00,0.0252
1166.00,0.0240
1153.00,0.0588
1140.00,0.0229
1127.00,0.0724
1114.00,0.0313
1101.00,0.0444
1088.00,0.0197
1075.00,0.0197
1062.00,0.0365
1049.00,0.0971
1036.00,0.0461
1023.00,0.0690
1010.00,0.0282
997.00,0.0352
984.00,0.0195
971.00,0.0180
958.00,0.0162
945.00,0.0145
932.00,0.0221
919.00,0.0219
906.00,0.0148
893.00,0.0221
880.00,0.0190
867.00,0.0529
854.00,0.0384
841.00,0.0354
828.00,0.0370
815.00,0.0710
802.00,0.0179
789.00,0.0167
776.00,0.0225
763.00,0.0216
750.00,0.0243
737.00,0.0420
724.00,0.0363
711.00,0.0360
698.00,0.0396
685.00,0.0413
672.00,0.0504
659.00,0.0514
646.00,0.0483
633.00,0.0457
620.00,0.0522
607.00,0.0516
594.00,0.0620
581.00,0.0622
568.00,0.0601
555.00,0.0636
542.00,0.0668
529.00,0.0676
516.00,0.0541
503.00,0.0553
490.00,0.0561
477.00,0.0528
464.00,0.0518
451.00,0.0507
438.00,0.0495
425.00,0.0462
412.00,0.0480
400.00,0.0447