Folder: Data/FTIR/Olivia (part 11)

File: 2025_07_29_Polystyrene_Std_scan2.csv
Created as New Dataset,Sample 952 By YargerLab Date Tuesday, July 29 2025
cm-1,A
4000.00,0.0013
3987.00,0.0012
3974.00,0.0011
3961.00,0.0011
3948.00,0.0012
3935.00,0.0012
3922.00,0.0011
3909.00,0.0012
3896.00,0.0011
3883.00,0.0011
3870.00,0.0011
3857.00,0.0011
3844.00,0.0012
3831.00,0.0011
3818.00,0.0011
3805.00,0.0011
3792.00,0.0012
3779.00,0.0012
3766.00,0.0012
3753.00,0.0011
3740.00,0.0010
3727.00,0.0011
3714.00,0.0011
3701.00,0.0012
3688.00,0.0011
3675.00,0.0011
3662.00,0.0012
3649.00,0.0012
3636.00,0.0012
3623.00,0.0012
3610.00,0.0012
3597.00,0.0013
3584.00,0.0013
3571.00,0.0015
3558.00,0.0015
3545.00,0.0016
3532.00,0.0018
3519.00,0.0019
3506.00,0.0019
3493.00,0.0020
3480.00,0.0020
3467.00,0.0021
3454.00,0.0021
3441.00,0.0021
3428.00,0.0021
3415.00,0.0022
3402.00,0.0022
3389.00,0.0021
3376.00,0.0021
3363.00,0.0021
3350.00,0.0021
3337.00,0.0021
3324.00,0.0020
3311.00,0.0021
3298.00,0.0020
3285.00,0.0020
3272.00,0.0019
3259.00,0.0019
3246.00,0.0019
3233.00,0.0018
3220.00,0.0018
3207.00,0.0018
3194.00,0.0018
3181.00,0.0017
3168.00,0.0018
3155.00,0.0017
3142.00,0.0016
3129.00,0.0016
3116.00,0.0019
3103.00,0.0036
3090.00,0.0047
3077.00,0.0067
3064.00,0.0097
3051.00,0.0070
3038.00,0.0077
3025.00,0.0212
3012.00,0.0061
2999.00,0.0060
2986.00,0.0036
2973.00,0.0040
2960.00,0.0056
2947.00,0.0094
2934.00,0.0187
2921.00,0.0262
2908.00,0.0198
2895.00,0.0119
2882.00,0.0084
2869.00,0.0068
2856.00,0.0101
2843.00,0.0094
2830.00,0.0035
2817.00,0.0026
2804.00,0.0024
2791.00,0.0021
2778.00,0.0020
2765.00,0.0018
2752.00,0.0017
2739.00,0.0018
2726.00,0.0018
2713.00,0.0018
2700.00,0.0017
2687.00,0.0018
2674.00,0.0017
2661.00,0.0020
2648.00,0.0021
2635.00,0.0021
2622.00,0.0020
2609.00,0.0019
2596.00,0.0017
2583.00,0.0016
2570.00,0.0015
2557.00,0.0015
2544.00,0.0014
2531.00,0.0014
2518.00,0.0013
2505.00,0.0013
2492.00,0.0012
2479.00,0.0011
2466.00,0.0012
2453.00,0.0012
2440.00,0.0010
2427.00,0.0009
2414.00,0.0009
2401.00,0.0008
2388.00,0.0008
2375.00,0.0007
2362.00,0.0007
2349.00,0.0010
2336.00,0.0014
2323.00,0.0020
2310.00,0.0015
2297.00,0.0014
2284.00,0.0018
2271.00,0.0013
2258.00,0.0013
2245.00,0.0012
2232.00,0.0009
2219.00,0.0009
2206.00,0.0007
2193.00,0.0011
2180.00,0.0007
2167.00,0.0012
2154.00,-0.0013
2141.00,-0.0009
2128.00,-0.0004
2115.00,0.0007
2102.00,0.0006
2089.00,0.0005
2076.00,0.0007
2063.00,0.0005
2050.00,0.0012
2037.00,0.0009
2024.00,-0.0002
2011.00,0.0003
1998.00,0.0002
1985.00,0.0012
1972.00,0.0001
1959.00,0.0010
1946.00,0.0027
1933.00,0.0015
1920.00,0.0008
1907.00,0.0006
1894.00,0.0014
1881.00,0.0022
1868.00,0.0027
1855.00,0.0012
1842.00,0.0007
1829.00,0.0012
1816.00,0.0019
1803.00,0.0032
1790.00,0.0019
1777.00,0.0016
1764.00,0.0019
1751.00,0.0033
1738.00,0.0042
1725.00,0.0035
1712.00,0.0029
1699.00,0.0035
1686.00,0.0054
1673.00,0.0062
1660.00,0.0060
1647.00,0.0045
1634.00,0.0033
1621.00,0.0033
1608.00,0.0084
1595.00,0.0105
1582.00,0.0084
1569.00,0.0026
1556.00,0.0024
1543.00,0.0036
1530.00,0.0025
1517.00,0.0025
1504.00,0.0044
1491.00,0.0449
1478.00,0.0059
1465.00,0.0068
1452.00,0.0505
1439.00,0.0192
1426.00,0.0066
1413.00,0.0045
1400.00,0.0043
1387.00,0.0070
1374.00,0.0111
1361.00,0.0102
1348.00,0.0090
1335.00,0.0081
1322.00,0.0088
1309.00,0.0090
1296.00,0.0080
1283.00,0.0072
1270.00,0.0057
1257.00,0.0049
1244.00,0.0051
1231.00,0.0050
1218.00,0.0051
1205.00,0.0062
1192.00,0.0078
1179.00,0.0098
1166.00,0.0061
1153.00,0.0102
1140.00,0.0043
1127.00,0.0041
1114.00,0.0055
1101.00,0.0058
1088.00,0.0070
1075.00,0.0113
1062.00,0.0113
1049.00,0.0075
1036.00,0.0104
1023.00,0.0178
1010.00,0.0093
997.00,0.0073
984.00,0.0083
971.00,0.0082
958.00,0.0078
945.00,0.0075
932.00,0.0055
919.00,0.0065
906.00,0.0164
893.00,0.0058
880.00,0.0040
867.00,0.0036
854.00,0.0041
841.00,0.0084
828.00,0.0038
815.00,0.0036
802.00,0.0042
789.00,0.0082
776.00,0.0209
763.00,0.0551
750.00,0.0718
737.00,0.0304
724.00,0.0082
711.00,0.0187
698.00,0.1710
685.00,0.0659
672.00,0.0294
659.00,0.0174
646.00,0.0112
633.00,0.0123
620.00,0.0149
607.00,0.0114
594.00,0.0129
581.00,0.0167
568.00,0.0283
555.00,0.0404
542.00,0.0634
529.00,0.0446
516.00,0.0216
503.00,0.0137
490.00,0.0112
477.00,0.0095
464.00,0.0087
451.00,0.0071
438.00,0.0077
425.00,0.0074
412.00,0.0058
400.00,0.0066

File: 2025_07_29_Polystyrene_Std_scan3.csv
Created as New Dataset,Sample 953 By YargerLab Date Tuesday, July 29 2025
cm-1,A
4000.00,0.0022
3987.00,0.0021
3974.00,0.0021
3961.00,0.0021
3948.00,0.0020
3935.00,0.0021
3922.00,0.0020
3909.00,0.0021
3896.00,0.0020
3883.00,0.0019
3870.00,0.0019
3857.00,0.0020
3844.00,0.0019
3831.00,0.0019
3818.00,0.0019
3805.00,0.0019
3792.00,0.0020
3779.00,0.0020
3766.00,0.0019
3753.00,0.0018
3740.00,0.0017
3727.00,0.0018
3714.00,0.0018
3701.00,0.0019
3688.00,0.0018
3675.00,0.0018
3662.00,0.0020
3649.00,0.0019
3636.00,0.0020
3623.00,0.0019
3610.00,0.0019
3597.00,0.0020
3584.00,0.0021
3571.00,0.0022
3558.00,0.0023
3545.00,0.0023
3532.00,0.0025
3519.00,0.0026
3506.00,0.0026
3493.00,0.0027
3480.00,0.0028
3467.00,0.0028
3454.00,0.0029
3441.00,0.0029
3428.00,0.0030
3415.00,0.0029
3402.00,0.0029
3389.00,0.0029
3376.00,0.0029
3363.00,0.0029
3350.00,0.0029
3337.00,0.0028
3324.00,0.0028
3311.00,0.0028
3298.00,0.0027
3285.00,0.0027
3272.00,0.0027
3259.00,0.0027
3246.00,0.0026
3233.00,0.0026
3220.00,0.0026
3207.00,0.0027
3194.00,0.0027
3181.00,0.0025
3168.00,0.0026
3155.00,0.0025
3142.00,0.0025
3129.00,0.0025
3116.00,0.0029
3103.00,0.0050
3090.00,0.0065
3077.00,0.0090
3064.00,0.0129
3051.00,0.0095
3038.00,0.0103
3025.00,0.0278
3012.00,0.0083
2999.00,0.0080
2986.00,0.0050
2973.00,0.0054
2960.00,0.0074
2947.00,0.0124
2934.00,0.0245
2921.00,0.0340
2908.00,0.0258
2895.00,0.0156
2882.00,0.0112
2869.00,0.0092
2856.00,0.0134
2843.00,0.0124
2830.00,0.0051
2817.00,0.0040
2804.00,0.0037
2791.00,0.0033
2778.00,0.0032
2765.00,0.0030
2752.00,0.0029
2739.00,0.0029
2726.00,0.0029
2713.00,0.0029
2700.00,0.0029
2687.00,0.0029
2674.00,0.0028
2661.00,0.0031
2648.00,0.0032
2635.00,0.0032
2622.00,0.0031
2609.00,0.0030
2596.00,0.0028
2583.00,0.0028
2570.00,0.0026
2557.00,0.0025
2544.00,0.0024
2531.00,0.0023
2518.00,0.0023
2505.00,0.0023
2492.00,0.0022
2479.00,0.0021
2466.00,0.0020
2453.00,0.0022
2440.00,0.0020
2427.00,0.0019
2414.00,0.0017
2401.00,0.0017
2388.00,0.0017
2375.00,0.0017
2362.00,0.0018
2349.00,0.0020
2336.00,0.0025
2323.00,0.0032
2310.00,0.0026
2297.00,0.0024
2284.00,0.0026
2271.00,0.0021
2258.00,0.0021
2245.00,0.0020
2232.00,0.0018
2219.00,0.0017
2206.00,0.0015
2193.00,0.0019
2180.00,0.0011
2167.00,0.0022
2154.00,-0.0008
2141.00,-0.0002
2128.00,0.0003
2115.00,0.0013
2102.00,0.0012
2089.00,0.0012
2076.00,0.0015
2063.00,0.0009
2050.00,0.0017
2037.00,0.0015
2024.00,0.0006
2011.00,0.0009
1998.00,0.0007
1985.00,0.0018
1972.00,0.0009
1959.00,0.0020
1946.00,0.0041
1933.00,0.0028
1920.00,0.0016
1907.00,0.0014
1894.00,0.0022
1881.00,0.0035
1868.00,0.0043
1855.00,0.0022
1842.00,0.0014
1829.00,0.0021
1816.00,0.0031
1803.00,0.0049
1790.00,0.0030
1777.00,0.0025
1764.00,0.0028
1751.00,0.0048
1738.00,0.0061
1725.00,0.0054
1712.00,0.0045
1699.00,0.0049
1686.00,0.0070
1673.00,0.0072
1660.00,0.0069
1647.00,0.0056
1634.00,0.0043
1621.00,0.0046
1608.00,0.0113
1595.00,0.0141
1582.00,0.0112
1569.00,0.0039
1556.00,0.0034
1543.00,0.0047
1530.00,0.0034
1517.00,0.0034
1504.00,0.0060
1491.00,0.0587
1478.00,0.0080
1465.00,0.0087
1452.00,0.0667
1439.00,0.0249
1426.00,0.0090
1413.00,0.0064
1400.00,0.0059
1387.00,0.0095
1374.00,0.0148
1361.00,0.0138
1348.00,0.0122
1335.00,0.0111
1322.00,0.0119
1309.00,0.0121
1296.00,0.0107
1283.00,0.0097
1270.00,0.0079
1257.00,0.0069
1244.00,0.0072
1231.00,0.0070
1218.00,0.0071
1205.00,0.0087
1192.00,0.0105
1179.00,0.0132
1166.00,0.0084
1153.00,0.0135
1140.00,0.0061
1127.00,0.0055
1114.00,0.0073
1101.00,0.0075
1088.00,0.0091
1075.00,0.0147
1062.00,0.0149
1049.00,0.0100
1036.00,0.0138
1023.00,0.0233
1010.00,0.0124
997.00,0.0098
984.00,0.0111
971.00,0.0109
958.00,0.0104
945.00,0.0101
932.00,0.0076
919.00,0.0088
906.00,0.0219
893.00,0.0078
880.00,0.0057
867.00,0.0051
854.00,0.0059
841.00,0.0113
828.00,0.0054
815.00,0.0053
802.00,0.0059
789.00,0.0111
776.00,0.0278
763.00,0.0735
750.00,0.0958
737.00,0.0401
724.00,0.0112
711.00,0.0248
698.00,0.2369
685.00,0.0878
672.00,0.0389
659.00,0.0234
646.00,0.0156
633.00,0.0169
620.00,0.0201
607.00,0.0158
594.00,0.0175
581.00,0.0226
568.00,0.0379
555.00,0.0537
542.00,0.0846
529.00,0.0593
516.00,0.0284
503.00,0.0184
490.00,0.0145
477.00,0.0124
464.00,0.0111
451.00,0.0103
438.00,0.0107
425.00,0.0095
412.00,0.0080
400.00,0.0091

File: 2025_07_30_Polystyrene_Std_scan1.csv
Created as New Dataset,Sample 957 By YargerLab Date Tuesday, July 29 2025
cm-1,A
4000.00,0.0014
3987.00,0.0013
3974.00,0.0013
3961.00,0.0012
3948.00,0.0013
3935.00,0.0012
3922.00,0.0012
3909.00,0.0013
3896.00,0.0011
3883.00,0.0011
3870.00,0.0011
3857.00,0.0011
3844.00,0.0011
3831.00,0.0011
3818.00,0.0010
3805.00,0.0012
3792.00,0.0013
3779.00,0.0012
3766.00,0.0012
3753.00,0.0012
3740.00,0.0011
3727.00,0.0011
3714.00,0.0011
3701.00,0.0012
3688.00,0.0011
3675.00,0.0011
3662.00,0.0014
3649.00,0.0013
3636.00,0.0014
3623.00,0.0015
3610.00,0.0017
3597.00,0.0020
3584.00,0.0022
3571.00,0.0022
3558.00,0.0022
3545.00,0.0024
3532.00,0.0026
3519.00,0.0028
3506.00,0.0030
3493.00,0.0031
3480.00,0.0034
3467.00,0.0035
3454.00,0.0036
3441.00,0.0038
3428.00,0.0038
3415.00,0.0038
3402.00,0.0039
3389.00,0.0039
3376.00,0.0039
3363.00,0.0038
3350.00,0.0038
3337.00,0.0038
3324.00,0.0037
3311.00,0.0037
3298.00,0.0036
3285.00,0.0036
3272.00,0.0035
3259.00,0.0034
3246.00,0.0033
3233.00,0.0031
3220.00,0.0031
3207.00,0.0032
3194.00,0.0030
3181.00,0.0029
3168.00,0.0029
3155.00,0.0027
3142.00,0.0026
3129.00,0.0026
3116.00,0.0031
3103.00,0.0054
3090.00,0.0075
3077.00,0.0100
3064.00,0.0149
3051.00,0.0106
3038.00,0.0120
3025.00,0.0319
3012.00,0.0092
2999.00,0.0091
2986.00,0.0064
2973.00,0.0091
2960.00,0.0107
2947.00,0.0156
2934.00,0.0308
2921.00,0.0412
2908.00,0.0310
2895.00,0.0190
2882.00,0.0138
2869.00,0.0114
2856.00,0.0165
2843.00,0.0144
2830.00,0.0055
2817.00,0.0042
2804.00,0.0037
2791.00,0.0033
2778.00,0.0031
2765.00,0.0028
2752.00,0.0026
2739.00,0.0027
2726.00,0.0027
2713.00,0.0026
2700.00,0.0026
2687.00,0.0025
2674.00,0.0025
2661.00,0.0029
2648.00,0.0031
2635.00,0.0031
2622.00,0.0028
2609.00,0.0027
2596.00,0.0026
2583.00,0.0025
2570.00,0.0022
2557.00,0.0021
2544.00,0.0021
2531.00,0.0019
2518.00,0.0019
2505.00,0.0018
2492.00,0.0019
2479.00,0.0017
2466.00,0.0015
2453.00,0.0016
2440.00,0.0014
2427.00,0.0013
2414.00,0.0012
2401.00,0.0012
2388.00,0.0011
2375.00,0.0012
2362.00,0.0014
2349.00,0.0017
2336.00,0.0021
2323.00,0.0031
2310.00,0.0024
2297.00,0.0023
2284.00,0.0024
2271.00,0.0019
2258.00,0.0017
2245.00,0.0016
2232.00,0.0013
2219.00,0.0012
2206.00,0.0013
2193.00,0.0011
2180.00,0.0010
2167.00,0.0019
2154.00,-0.0016
2141.00,-0.0011
2128.00,-0.0006
2115.00,0.0010
2102.00,0.0007
2089.00,0.0006
2076.00,0.0010
2063.00,0.0004
2050.00,0.0013
2037.00,0.0009
2024.00,-0.0001
2011.00,-0.0000
1998.00,0.0005
1985.00,0.0017
1972.00,0.0006
1959.00,0.0018
1946.00,0.0041
1933.00,0.0022
1920.00,0.0012
1907.00,0.0009
1894.00,0.0020
1881.00,0.0034
1868.00,0.0041
1855.00,0.0019
1842.00,0.0011
1829.00,0.0018
1816.00,0.0029
1803.00,0.0048
1790.00,0.0030
1777.00,0.0028
1764.00,0.0035
1751.00,0.0057
1738.00,0.0067
1725.00,0.0056
1712.00,0.0048
1699.00,0.0051
1686.00,0.0074
1673.00,0.0105
1660.00,0.0100
1647.00,0.0061
1634.00,0.0043
1621.00,0.0053
1608.00,0.0130
1595.00,0.0154
1582.00,0.0124
1569.00,0.0037
1556.00,0.0035
1543.00,0.0049
1530.00,0.0035
1517.00,0.0036
1504.00,0.0069
1491.00,0.0649
1478.00,0.0090
1465.00,0.0113
1452.00,0.0759
1439.00,0.0289
1426.00,0.0108
1413.00,0.0077
1400.00,0.0077
1387.00,0.0119
1374.00,0.0181
1361.00,0.0162
1348.00,0.0140
1335.00,0.0129
1322.00,0.0137
1309.00,0.0142
1296.00,0.0132
1283.00,0.0119
1270.00,0.0092
1257.00,0.0082
1244.00,0.0083
1231.00,0.0080
1218.00,0.0082
1205.00,0.0096
1192.00,0.0121
1179.00,0.0149
1166.00,0.0109
1153.00,0.0167
1140.00,0.0083
1127.00,0.0089
1114.00,0.0097
1101.00,0.0099
1088.00,0.0116
1075.00,0.0178
1062.00,0.0178
1049.00,0.0116
1036.00,0.0158
1023.00,0.0260
1010.00,0.0142
997.00,0.0113
984.00,0.0128
971.00,0.0127
958.00,0.0134
945.00,0.0136
932.00,0.0091
919.00,0.0103
906.00,0.0236
893.00,0.0089
880.00,0.0066
867.00,0.0059
854.00,0.0066
841.00,0.0124
828.00,0.0060
815.00,0.0069
802.00,0.0064
789.00,0.0119
776.00,0.0304
763.00,0.0792
750.00,0.1006
737.00,0.0429
724.00,0.0120
711.00,0.0277
698.00,0.2498
685.00,0.0879
672.00,0.0410
659.00,0.0253
646.00,0.0173
633.00,0.0186
620.00,0.0219
607.00,0.0173
594.00,0.0190
581.00,0.0242
568.00,0.0402
555.00,0.0566
542.00,0.0870
529.00,0.0608
516.00,0.0307
503.00,0.0209
490.00,0.0165
477.00,0.0144
464.00,0.0131
451.00,0.0127
438.00,0.0123
425.00,0.0106
412.00,0.0101
400.00,0.0136

File: 2025_07_30_Polystyrene_Std_scan2.csv
Created as New Dataset,Sample 958 By YargerLab Date Wednesday, July 30 2025
cm-1,A
4000.00,0.0011
3987.00,0.0011
3974.00,0.0010
3961.00,0.0011
3948.00,0.0011
3935.00,0.0011
3922.00,0.0011
3909.00,0.0011
3896.00,0.0013
3883.00,0.0014
3870.00,0.0014
3857.00,0.0015
3844.00,0.0013
3831.00,0.0014
3818.00,0.0015
3805.00,0.0014
3792.00,0.0012
3779.00,0.0012
3766.00,0.0013
3753.00,0.0017
3740.00,0.0016
3727.00,0.0013
3714.00,0.0013
3701.00,0.0011
3688.00,0.0014
3675.00,0.0014
3662.00,0.0010
3649.00,0.0015
3636.00,0.0010
3623.00,0.0012
3610.00,0.0013
3597.00,0.0012
3584.00,0.0012
3571.00,0.0012
3558.00,0.0012
3545.00,0.0013
3532.00,0.0013
3519.00,0.0013
3506.00,0.0013
3493.00,0.0013
3480.00,0.0013
3467.00,0.0013
3454.00,0.0012
3441.00,0.0013
3428.00,0.0013
3415.00,0.0013
3402.00,0.0013
3389.00,0.0012
3376.00,0.0012
3363.00,0.0012
3350.00,0.0012
3337.00,0.0011
3324.00,0.0011
3311.00,0.0011
3298.00,0.0011
3285.00,0.0011
3272.00,0.0011
3259.00,0.0011
3246.00,0.0010
3233.00,0.0010
3220.00,0.0009
3207.00,0.0010
3194.00,0.0009
3181.00,0.0009
3168.00,0.0010
3155.00,0.0010
3142.00,0.0009
3129.00,0.0010
3116.00,0.0012
3103.00,0.0019
3090.00,0.0025
3077.00,0.0035
3064.00,0.0046
3051.00,0.0036
3038.00,0.0037
3025.00,0.0101
3012.00,0.0031
2999.00,0.0028
2986.00,0.0014
2973.00,0.0015
2960.00,0.0015
2947.00,0.0033
2934.00,0.0061
2921.00,0.0090
2908.00,0.0079
2895.00,0.0048
2882.00,0.0035
2869.00,0.0025
2856.00,0.0030
2843.00,0.0040
2830.00,0.0017
2817.00,0.0014
2804.00,0.0013
2791.00,0.0012
2778.00,0.0012
2765.00,0.0011
2752.00,0.0011
2739.00,0.0011
2726.00,0.0012
2713.00,0.0011
2700.00,0.0011
2687.00,0.0011
2674.00,0.0011
2661.00,0.0014
2648.00,0.0016
2635.00,0.0016
2622.00,0.0014
2609.00,0.0013
2596.00,0.0013
2583.00,0.0012
2570.00,0.0011
2557.00,0.0009
2544.00,0.0009
2531.00,0.0009
2518.00,0.0008
2505.00,0.0008
2492.00,0.0008
2479.00,0.0007
2466.00,0.0007
2453.00,0.0008
2440.00,0.0006
2427.00,0.0006
2414.00,0.0005
2401.00,0.0004
2388.00,0.0004
2375.00,0.0004
2362.00,0.0008
2349.00,0.0005
2336.00,0.0009
2323.00,0.0017
2310.00,0.0011
2297.00,0.0013
2284.00,0.0017
2271.00,0.0013
2258.00,0.0010
2245.00,0.0009
2232.00,0.0007
2219.00,0.0008
2206.00,0.0008
2193.00,0.0008
2180.00,0.0003
2167.00,0.0016
2154.00,-0.0016
2141.00,-0.0009
2128.00,-0.0007
2115.00,0.0004
2102.00,0.0005
2089.00,0.0003
2076.00,0.0008
2063.00,0.0002
2050.00,0.0011
2037.00,0.0007
2024.00,0.0001
2011.00,-0.0002
1998.00,0.0002
1985.00,0.0010
1972.00,-0.0002
1959.00,0.0001
1946.00,0.0010
1933.00,0.0003
1920.00,0.0003
1907.00,0.0001
1894.00,0.0005
1881.00,0.0011
1868.00,0.0013
1855.00,0.0006
1842.00,0.0002
1829.00,0.0006
1816.00,0.0008
1803.00,0.0017
1790.00,0.0012
1777.00,0.0010
1764.00,0.0012
1751.00,0.0016
1738.00,0.0017
1725.00,0.0015
1712.00,0.0015
1699.00,0.0023
1686.00,0.0043
1673.00,0.0049
1660.00,0.0043
1647.00,0.0029
1634.00,0.0018
1621.00,0.0017
1608.00,0.0045
1595.00,0.0061
1582.00,0.0048
1569.00,0.0016
1556.00,0.0015
1543.00,0.0023
1530.00,0.0017
1517.00,0.0017
1504.00,0.0029
1491.00,0.0279
1478.00,0.0037
1465.00,0.0039
1452.00,0.0300
1439.00,0.0122
1426.00,0.0048
1413.00,0.0032
1400.00,0.0028
1387.00,0.0044
1374.00,0.0069
1361.00,0.0065
1348.00,0.0058
1335.00,0.0053
1322.00,0.0059
1309.00,0.0060
1296.00,0.0055
1283.00,0.0054
1270.00,0.0043
1257.00,0.0033
1244.00,0.0035
1231.00,0.0034
1218.00,0.0036
1205.00,0.0043
1192.00,0.0054
1179.00,0.0068
1166.00,0.0043
1153.00,0.0072
1140.00,0.0034
1127.00,0.0034
1114.00,0.0044
1101.00,0.0045
1088.00,0.0055
1075.00,0.0088
1062.00,0.0089
1049.00,0.0058
1036.00,0.0078
1023.00,0.0137
1010.00,0.0075
997.00,0.0062
984.00,0.0070
971.00,0.0069
958.00,0.0066
945.00,0.0066
932.00,0.0049
919.00,0.0056
906.00,0.0129
893.00,0.0049
880.00,0.0036
867.00,0.0032
854.00,0.0036
841.00,0.0067
828.00,0.0033
815.00,0.0032
802.00,0.0035
789.00,0.0066
776.00,0.0164
763.00,0.0428
750.00,0.0551
737.00,0.0236
724.00,0.0066
711.00,0.0150
698.00,0.1526
685.00,0.0581
672.00,0.0258
659.00,0.0155
646.00,0.0096
633.00,0.0106
620.00,0.0125
607.00,0.0097
594.00,0.0109
581.00,0.0143
568.00,0.0240
555.00,0.0343
542.00,0.0542
529.00,0.0398
516.00,0.0199
503.00,0.0137
490.00,0.0107
477.00,0.0095
464.00,0.0079
451.00,0.0086
438.00,0.0072
425.00,0.0059
412.00,0.0055
400.00,0.0072

File: 2025_07_30_Polystyrene_Std_scan3.csv
Created as New Dataset,Sample 959 By YargerLab Date Wednesday, July 30 2025
cm-1,A
4000.00,0.0011
3987.00,0.0010
3974.00,0.0011
3961.00,0.0010
3948.00,0.0010
3935.00,0.0010
3922.00,0.0010
3909.00,0.0010
3896.00,0.0009
3883.00,0.0008
3870.00,0.0009
3857.00,0.0009
3844.00,0.0010
3831.00,0.0009
3818.00,0.0008
3805.00,0.0009
3792.00,0.0010
3779.00,0.0010
3766.00,0.0009
3753.00,0.0009
3740.00,0.0007
3727.00,0.0008
3714.00,0.0009
3701.00,0.0008
3688.00,0.0007
3675.00,0.0006
3662.00,0.0009
3649.00,0.0007
3636.00,0.0010
3623.00,0.0008
3610.00,0.0008
3597.00,0.0011
3584.00,0.0010
3571.00,0.0012
3558.00,0.0014
3545.00,0.0014
3532.00,0.0016
3519.00,0.0016
3506.00,0.0018
3493.00,0.0019
3480.00,0.0020
3467.00,0.0021
3454.00,0.0021
3441.00,0.0023
3428.00,0.0024
3415.00,0.0026
3402.00,0.0026
3389.00,0.0027
3376.00,0.0027
3363.00,0.0028
3350.00,0.0029
3337.00,0.0030
3324.00,0.0030
3311.00,0.0029
3298.00,0.0029
3285.00,0.0029
3272.00,0.0028
3259.00,0.0026
3246.00,0.0025
3233.00,0.0024
3220.00,0.0023
3207.00,0.0022
3194.00,0.0021
3181.00,0.0019
3168.00,0.0019
3155.00,0.0018
3142.00,0.0018
3129.00,0.0017
3116.00,0.0018
3103.00,0.0024
3090.00,0.0027
3077.00,0.0036
3064.00,0.0045
3051.00,0.0037
3038.00,0.0038
3025.00,0.0090
3012.00,0.0032
2999.00,0.0032
2986.00,0.0024
2973.00,0.0028
2960.00,0.0036
2947.00,0.0050
2934.00,0.0086
2921.00,0.0118
2908.00,0.0094
2895.00,0.0062
2882.00,0.0048
2869.00,0.0041
2856.00,0.0054
2843.00,0.0050
2830.00,0.0024
2817.00,0.0019
2804.00,0.0018
2791.00,0.0017
2778.00,0.0016
2765.00,0.0015
2752.00,0.0015
2739.00,0.0015
2726.00,0.0015
2713.00,0.0015
2700.00,0.0014
2687.00,0.0014
2674.00,0.0014
2661.00,0.0017
2648.00,0.0019
2635.00,0.0018
2622.00,0.0016
2609.00,0.0016
2596.00,0.0016
2583.00,0.0013
2570.00,0.0012
2557.00,0.0012
2544.00,0.0012
2531.00,0.0011
2518.00,0.0010
2505.00,0.0010
2492.00,0.0010
2479.00,0.0010
2466.00,0.0009
2453.00,0.0011
2440.00,0.0009
2427.00,0.0008
2414.00,0.0007
2401.00,0.0007
2388.00,0.0006
2375.00,0.0004
2362.00,0.0005
2349.00,0.0006
2336.00,0.0010
2323.00,0.0020
2310.00,0.0013
2297.00,0.0013
2284.00,0.0017
2271.00,0.0013
2258.00,0.0011
2245.00,0.0011
2232.00,0.0011
2219.00,0.0009
2206.00,0.0010
2193.00,0.0011
2180.00,0.0006
2167.00,0.0016
2154.00,-0.0011
2141.00,-0.0006
2128.00,-0.0004
2115.00,0.0006
2102.00,0.0006
2089.00,0.0005
2076.00,0.0007
2063.00,0.0004
2050.00,0.0015
2037.00,0.0009
2024.00,-0.0000
2011.00,0.0001
1998.00,-0.0001
1985.00,0.0009
1972.00,-0.0002
1959.00,-0.0001
1946.00,0.0011
1933.00,0.0004
1920.00,0.0002
1907.00,0.0003
1894.00,0.0005
1881.00,0.0010
1868.00,0.0012
1855.00,0.0007
1842.00,0.0005
1829.00,0.0007
1816.00,0.0009
1803.00,0.0017
1790.00,0.0012
1777.00,0.0011
1764.00,0.0014
1751.00,0.0021
1738.00,0.0025
1725.00,0.0023
1712.00,0.0021
1699.00,0.0026
1686.00,0.0050
1673.00,0.0067
1660.00,0.0068
1647.00,0.0048
1634.00,0.0031
1621.00,0.0031
1608.00,0.0050
1595.00,0.0060
1582.00,0.0050
1569.00,0.0019
1556.00,0.0017
1543.00,0.0023
1530.00,0.0019
1517.00,0.0019
1504.00,0.0030
1491.00,0.0238
1478.00,0.0040
1465.00,0.0053
1452.00,0.0260
1439.00,0.0122
1426.00,0.0060
1413.00,0.0040
1400.00,0.0039
1387.00,0.0050
1374.00,0.0074
1361.00,0.0071
1348.00,0.0062
1335.00,0.0061
1322.00,0.0067
1309.00,0.0068
1296.00,0.0069
1283.00,0.0068
1270.00,0.0054
1257.00,0.0043
1244.00,0.0045
1231.00,0.0045
1218.00,0.0045
1205.00,0.0051
1192.00,0.0060
1179.00,0.0070
1166.00,0.0057
1153.00,0.0083
1140.00,0.0045
1127.00,0.0049
1114.00,0.0063
1101.00,0.0067
1088.00,0.0071
1075.00,0.0100
1062.00,0.0114
1049.00,0.0089
1036.00,0.0105
1023.00,0.0152
1010.00,0.0099
997.00,0.0088
984.00,0.0094
971.00,0.0086
958.00,0.0081
945.00,0.0077
932.00,0.0061
919.00,0.0065
906.00,0.0123
893.00,0.0059
880.00,0.0048
867.00,0.0043
854.00,0.0047
841.00,0.0073
828.00,0.0043
815.00,0.0043
802.00,0.0044
789.00,0.0067
776.00,0.0146
763.00,0.0354
750.00,0.0452
737.00,0.0208
724.00,0.0075
711.00,0.0143
698.00,0.1185
685.00,0.0482
672.00,0.0230
659.00,0.0152
646.00,0.0106
633.00,0.0112
620.00,0.0131
607.00,0.0108
594.00,0.0120
581.00,0.0148
568.00,0.0224
555.00,0.0311
542.00,0.0464
529.00,0.0351
516.00,0.0196
503.00,0.0138
490.00,0.0124
477.00,0.0106
464.00,0.0100
451.00,0.0094
438.00,0.0088
425.00,0.0073
412.00,0.0090
400.00,0.0076

File: 2025_07_30_Polystyrene_Std_scan4.csv
Created as New Dataset,Sample 960 By YargerLab Date Wednesday, July 30 2025
cm-1,A
4000.00,0.0006
3987.00,0.0006
3974.00,0.0006
3961.00,0.0005
3948.00,0.0006
3935.00,0.0006
3922.00,0.0006
3909.00,0.0006
3896.00,0.0005
3883.00,0.0005
3870.00,0.0004
3857.00,0.0005
3844.00,0.0005
3831.00,0.0005
3818.00,0.0004
3805.00,0.0006
3792.00,0.0006
3779.00,0.0006
3766.00,0.0005
3753.00,0.0006
3740.00,0.0005
3727.00,0.0005
3714.00,0.0006
3701.00,0.0004
3688.00,0.0004
3675.00,0.0003
3662.00,0.0005
3649.00,0.0004
3636.00,0.0005
3623.00,0.0005
3610.00,0.0004
3597.00,0.0006
3584.00,0.0006
3571.00,0.0006
3558.00,0.0007
3545.00,0.0008
3532.00,0.0009
3519.00,0.0009
3506.00,0.0011
3493.00,0.0012
3480.00,0.0012
3467.00,0.0013
3454.00,0.0014
3441.00,0.0014
3428.00,0.0016
3415.00,0.0017
3402.00,0.0018
3389.00,0.0018
3376.00,0.0019
3363.00,0.0019
3350.00,0.0021
3337.00,0.0022
3324.00,0.0021
3311.00,0.0020
3298.00,0.0021
3285.00,0.0020
3272.00,0.0020
3259.00,0.0019
3246.00,0.0017
3233.00,0.0015
3220.00,0.0015
3207.00,0.0014
3194.00,0.0013
3181.00,0.0012
3168.00,0.0012
3155.00,0.0011
3142.00,0.0011
3129.00,0.0011
3116.00,0.0011
3103.00,0.0016
3090.00,0.0019
3077.00,0.0026
3064.00,0.0033
3051.00,0.0027
3038.00,0.0027
3025.00,0.0070
3012.00,0.0022
2999.00,0.0021
2986.00,0.0013
2973.00,0.0015
2960.00,0.0020
2947.00,0.0032
2934.00,0.0059
2921.00,0.0083
2908.00,0.0067
2895.00,0.0042
2882.00,0.0031
2869.00,0.0026
2856.00,0.0034
2843.00,0.0033
2830.00,0.0015
2817.00,0.0011
2804.00,0.0011
2791.00,0.0010
2778.00,0.0009
2765.00,0.0009
2752.00,0.0009
2739.00,0.0009
2726.00,0.0009
2713.00,0.0009
2700.00,0.0009
2687.00,0.0009
2674.00,0.0008
2661.00,0.0011
2648.00,0.0013
2635.00,0.0012
2622.00,0.0011
2609.00,0.0011
2596.00,0.0010
2583.00,0.0009
2570.00,0.0008
2557.00,0.0007
2544.00,0.0008
2531.00,0.0006
2518.00,0.0007
2505.00,0.0006
2492.00,0.0006
2479.00,0.0005
2466.00,0.0005
2453.00,0.0006
2440.00,0.0005
2427.00,0.0004
2414.00,0.0004
2401.00,0.0002
2388.00,0.0002
2375.00,0.0003
2362.00,0.0004
2349.00,0.0008
2336.00,0.0009
2323.00,0.0018
2310.00,0.0011
2297.00,0.0011
2284.00,0.0014
2271.00,0.0010
2258.00,0.0009
2245.00,0.0007
2232.00,0.0007
2219.00,0.0005
2206.00,0.0006
2193.00,0.0006
2180.00,0.0003
2167.00,0.0015
2154.00,-0.0013
2141.00,-0.0010
2128.00,-0.0008
2115.00,0.0005
2102.00,0.0003
2089.00,0.0002
2076.00,0.0003
2063.00,0.0003
2050.00,0.0011
2037.00,0.0003
2024.00,-0.0002
2011.00,-0.0003
1998.00,-0.0004
1985.00,0.0006
1972.00,-0.0006
1959.00,-0.0005
1946.00,0.0005
1933.00,0.0001
1920.00,-0.0001
1907.00,0.0000
1894.00,0.0002
1881.00,0.0006
1868.00,0.0007
1855.00,0.0004
1842.00,0.0001
1829.00,0.0003
1816.00,0.0003
1803.00,0.0011
1790.00,0.0007
1777.00,0.0006
1764.00,0.0008
1751.00,0.0013
1738.00,0.0016
1725.00,0.0014
1712.00,0.0012
1699.00,0.0011
1686.00,0.0011
1673.00,0.0019
1660.00,0.0020
1647.00,0.0016
1634.00,0.0014
1621.00,0.0014
1608.00,0.0031
1595.00,0.0041
1582.00,0.0032
1569.00,0.0012
1556.00,0.0011
1543.00,0.0015
1530.00,0.0012
1517.00,0.0011
1504.00,0.0019
1491.00,0.0174
1478.00,0.0026
1465.00,0.0029
1452.00,0.0185
1439.00,0.0077
1426.00,0.0029
1413.00,0.0022
1400.00,0.0022
1387.00,0.0033
1374.00,0.0050
1361.00,0.0048
1348.00,0.0044
1335.00,0.0043
1322.00,0.0045
1309.00,0.0047
1296.00,0.0038
1283.00,0.0036
1270.00,0.0030
1257.00,0.0027
1244.00,0.0028
1231.00,0.0027
1218.00,0.0027
1205.00,0.0034
1192.00,0.0040
1179.00,0.0049
1166.00,0.0041
1153.00,0.0059
1140.00,0.0032
1127.00,0.0035
1114.00,0.0050
1101.00,0.0053
1088.00,0.0055
1075.00,0.0077
1062.00,0.0085
1049.00,0.0072
1036.00,0.0084
1023.00,0.0118
1010.00,0.0079
997.00,0.0071
984.00,0.0076
971.00,0.0070
958.00,0.0065
945.00,0.0060
932.00,0.0048
919.00,0.0051
906.00,0.0094
893.00,0.0045
880.00,0.0036
867.00,0.0032
854.00,0.0034
841.00,0.0054
828.00,0.0029
815.00,0.0029
802.00,0.0032
789.00,0.0051
776.00,0.0108
763.00,0.0259
750.00,0.0330
737.00,0.0152
724.00,0.0055
711.00,0.0107
698.00,0.0837
685.00,0.0358
672.00,0.0170
659.00,0.0110
646.00,0.0076
633.00,0.0082
620.00,0.0096
607.00,0.0079
594.00,0.0091
581.00,0.0111
568.00,0.0170
555.00,0.0234
542.00,0.0346
529.00,0.0268
516.00,0.0153
503.00,0.0108
490.00,0.0094
477.00,0.0085
464.00,0.0081
451.00,0.0075
438.00,0.0077
425.00,0.0055
412.00,0.0057
400.00,0.0042