Folder: Data/FTIR/Olivia (part 4)

File: 2025_06_18_CBD_SorbicAcid_Cocrystal_Slurry_Vial_scan1.csv
Created as New Dataset,Sample 712 By YargerLab Date Wednesday, June 18 2025
cm-1,A
4000.00,0.0011
3987.00,0.0011
3974.00,0.0011
3961.00,0.0012
3948.00,0.0011
3935.00,0.0011
3922.00,0.0011
3909.00,0.0011
3896.00,0.0010
3883.00,0.0010
3870.00,0.0010
3857.00,0.0011
3844.00,0.0010
3831.00,0.0010
3818.00,0.0010
3805.00,0.0010
3792.00,0.0010
3779.00,0.0010
3766.00,0.0010
3753.00,0.0010
3740.00,0.0009
3727.00,0.0009
3714.00,0.0008
3701.00,0.0009
3688.00,0.0008
3675.00,0.0007
3662.00,0.0007
3649.00,0.0006
3636.00,0.0007
3623.00,0.0007
3610.00,0.0008
3597.00,0.0008
3584.00,0.0009
3571.00,0.0010
3558.00,0.0010
3545.00,0.0011
3532.00,0.0014
3519.00,0.0016
3506.00,0.0020
3493.00,0.0028
3480.00,0.0039
3467.00,0.0062
3454.00,0.0141
3441.00,0.0143
3428.00,0.0094
3415.00,0.0063
3402.00,0.0047
3389.00,0.0042
3376.00,0.0040
3363.00,0.0040
3350.00,0.0042
3337.00,0.0044
3324.00,0.0046
3311.00,0.0049
3298.00,0.0052
3285.00,0.0058
3272.00,0.0062
3259.00,0.0068
3246.00,0.0072
3233.00,0.0077
3220.00,0.0083
3207.00,0.0087
3194.00,0.0092
3181.00,0.0096
3168.00,0.0098
3155.00,0.0100
3142.00,0.0105
3129.00,0.0109
3116.00,0.0112
3103.00,0.0117
3090.00,0.0119
3077.00,0.0124
3064.00,0.0124
3051.00,0.0110
3038.00,0.0107
3025.00,0.0102
3012.00,0.0097
2999.00,0.0096
2986.00,0.0107
2973.00,0.0124
2960.00,0.0158
2947.00,0.0169
2934.00,0.0213
2921.00,0.0259
2908.00,0.0184
2895.00,0.0141
2882.00,0.0133
2869.00,0.0152
2856.00,0.0164
2843.00,0.0122
2830.00,0.0109
2817.00,0.0080
2804.00,0.0073
2791.00,0.0070
2778.00,0.0071
2765.00,0.0075
2752.00,0.0076
2739.00,0.0077
2726.00,0.0079
2713.00,0.0079
2700.00,0.0080
2687.00,0.0080
2674.00,0.0079
2661.00,0.0083
2648.00,0.0083
2635.00,0.0081
2622.00,0.0079
2609.00,0.0077
2596.00,0.0073
2583.00,0.0070
2570.00,0.0069
2557.00,0.0069
2544.00,0.0067
2531.00,0.0064
2518.00,0.0061
2505.00,0.0057
2492.00,0.0056
2479.00,0.0055
2466.00,0.0055
2453.00,0.0057
2440.00,0.0055
2427.00,0.0054
2414.00,0.0052
2401.00,0.0047
2388.00,0.0042
2375.00,0.0036
2362.00,0.0033
2349.00,0.0030
2336.00,0.0031
2323.00,0.0039
2310.00,0.0029
2297.00,0.0030
2284.00,0.0034
2271.00,0.0028
2258.00,0.0027
2245.00,0.0021
2232.00,0.0022
2219.00,0.0020
2206.00,0.0019
2193.00,0.0022
2180.00,0.0016
2167.00,0.0032
2154.00,-0.0013
2141.00,-0.0003
2128.00,-0.0001
2115.00,0.0012
2102.00,0.0009
2089.00,0.0009
2076.00,0.0011
2063.00,0.0009
2050.00,0.0019
2037.00,0.0012
2024.00,0.0003
2011.00,0.0008
1998.00,0.0004
1985.00,0.0012
1972.00,-0.0000
1959.00,-0.0005
1946.00,0.0002
1933.00,0.0002
1920.00,0.0005
1907.00,0.0004
1894.00,0.0004
1881.00,0.0005
1868.00,0.0007
1855.00,0.0006
1842.00,0.0007
1829.00,0.0007
1816.00,0.0004
1803.00,0.0008
1790.00,0.0012
1777.00,0.0013
1764.00,0.0013
1751.00,0.0013
1738.00,0.0015
1725.00,0.0017
1712.00,0.0019
1699.00,0.0022
1686.00,0.0026
1673.00,0.0036
1660.00,0.0067
1647.00,0.0174
1634.00,0.0386
1621.00,0.0234
1608.00,0.0145
1595.00,0.0192
1582.00,0.0400
1569.00,0.0406
1556.00,0.0252
1543.00,0.0164
1530.00,0.0141
1517.00,0.0115
1504.00,0.0075
1491.00,0.0066
1478.00,0.0085
1465.00,0.0153
1452.00,0.0328
1439.00,0.0399
1426.00,0.0225
1413.00,0.0195
1400.00,0.0212
1387.00,0.0176
1374.00,0.0228
1361.00,0.0206
1348.00,0.0270
1335.00,0.0249
1322.00,0.0302
1309.00,0.0217
1296.00,0.0202
1283.00,0.0298
1270.00,0.0171
1257.00,0.0139
1244.00,0.0248
1231.00,0.0155
1218.00,0.0157
1205.00,0.0257
1192.00,0.0110
1179.00,0.0134
1166.00,0.0170
1153.00,0.0135
1140.00,0.0078
1127.00,0.0051
1114.00,0.0050
1101.00,0.0091
1088.00,0.0062
1075.00,0.0058
1062.00,0.0101
1049.00,0.0173
1036.00,0.0279
1023.00,0.0162
1010.00,0.0095
997.00,0.0109
984.00,0.0084
971.00,0.0068
958.00,0.0110
945.00,0.0093
932.00,0.0081
919.00,0.0124
906.00,0.0125
893.00,0.0190
880.00,0.0213
867.00,0.0184
854.00,0.0271
841.00,0.0244
828.00,0.0177
815.00,0.0105
802.00,0.0183
789.00,0.0145
776.00,0.0123
763.00,0.0125
750.00,0.0098
737.00,0.0128
724.00,0.0109
711.00,0.0105
698.00,0.0102
685.00,0.0130
672.00,0.0146
659.00,0.0097
646.00,0.0095
633.00,0.0106
620.00,0.0093
607.00,0.0101
594.00,0.0099
581.00,0.0148
568.00,0.0073
555.00,0.0145
542.00,0.0124
529.00,0.0133
516.00,0.0093
503.00,0.0159
490.00,0.0287
477.00,0.0295
464.00,0.0273
451.00,0.0193
438.00,0.0170
425.00,0.0120
412.00,0.0110
400.00,0.0107

File: 2025_06_18_CBD_SorbicAcid_Cocrystal_Slurry_Vial_scan2.csv
Created as New Dataset,Sample 713 By YargerLab Date Wednesday, June 18 2025
cm-1,A
4000.00,0.0011
3987.00,0.0011
3974.00,0.0011
3961.00,0.0011
3948.00,0.0010
3935.00,0.0010
3922.00,0.0010
3909.00,0.0010
3896.00,0.0010
3883.00,0.0010
3870.00,0.0010
3857.00,0.0010
3844.00,0.0009
3831.00,0.0010
3818.00,0.0010
3805.00,0.0009
3792.00,0.0010
3779.00,0.0010
3766.00,0.0010
3753.00,0.0009
3740.00,0.0008
3727.00,0.0008
3714.00,0.0008
3701.00,0.0008
3688.00,0.0007
3675.00,0.0006
3662.00,0.0006
3649.00,0.0005
3636.00,0.0005
3623.00,0.0006
3610.00,0.0007
3597.00,0.0008
3584.00,0.0009
3571.00,0.0009
3558.00,0.0011
3545.00,0.0013
3532.00,0.0016
3519.00,0.0020
3506.00,0.0027
3493.00,0.0038
3480.00,0.0057
3467.00,0.0092
3454.00,0.0216
3441.00,0.0221
3428.00,0.0111
3415.00,0.0071
3402.00,0.0059
3389.00,0.0055
3376.00,0.0054
3363.00,0.0055
3350.00,0.0057
3337.00,0.0060
3324.00,0.0064
3311.00,0.0068
3298.00,0.0074
3285.00,0.0081
3272.00,0.0088
3259.00,0.0096
3246.00,0.0102
3233.00,0.0110
3220.00,0.0118
3207.00,0.0125
3194.00,0.0131
3181.00,0.0137
3168.00,0.0140
3155.00,0.0142
3142.00,0.0149
3129.00,0.0155
3116.00,0.0160
3103.00,0.0167
3090.00,0.0169
3077.00,0.0176
3064.00,0.0177
3051.00,0.0156
3038.00,0.0150
3025.00,0.0143
3012.00,0.0136
2999.00,0.0135
2986.00,0.0152
2973.00,0.0177
2960.00,0.0228
2947.00,0.0242
2934.00,0.0307
2921.00,0.0384
2908.00,0.0269
2895.00,0.0204
2882.00,0.0191
2869.00,0.0219
2856.00,0.0240
2843.00,0.0175
2830.00,0.0156
2817.00,0.0112
2804.00,0.0101
2791.00,0.0097
2778.00,0.0098
2765.00,0.0103
2752.00,0.0105
2739.00,0.0106
2726.00,0.0110
2713.00,0.0110
2700.00,0.0111
2687.00,0.0111
2674.00,0.0110
2661.00,0.0115
2648.00,0.0113
2635.00,0.0110
2622.00,0.0108
2609.00,0.0105
2596.00,0.0100
2583.00,0.0096
2570.00,0.0094
2557.00,0.0096
2544.00,0.0094
2531.00,0.0088
2518.00,0.0085
2505.00,0.0080
2492.00,0.0079
2479.00,0.0077
2466.00,0.0076
2453.00,0.0079
2440.00,0.0077
2427.00,0.0076
2414.00,0.0072
2401.00,0.0065
2388.00,0.0059
2375.00,0.0051
2362.00,0.0047
2349.00,0.0043
2336.00,0.0042
2323.00,0.0049
2310.00,0.0037
2297.00,0.0038
2284.00,0.0041
2271.00,0.0034
2258.00,0.0032
2245.00,0.0027
2232.00,0.0027
2219.00,0.0024
2206.00,0.0023
2193.00,0.0028
2180.00,0.0020
2167.00,0.0030
2154.00,-0.0008
2141.00,-0.0002
2128.00,0.0001
2115.00,0.0015
2102.00,0.0012
2089.00,0.0009
2076.00,0.0013
2063.00,0.0010
2050.00,0.0020
2037.00,0.0013
2024.00,0.0007
2011.00,0.0007
1998.00,0.0004
1985.00,0.0014
1972.00,0.0001
1959.00,-0.0003
1946.00,0.0001
1933.00,0.0003
1920.00,0.0007
1907.00,0.0005
1894.00,0.0005
1881.00,0.0007
1868.00,0.0009
1855.00,0.0008
1842.00,0.0009
1829.00,0.0009
1816.00,0.0006
1803.00,0.0011
1790.00,0.0016
1777.00,0.0018
1764.00,0.0017
1751.00,0.0018
1738.00,0.0020
1725.00,0.0023
1712.00,0.0027
1699.00,0.0031
1686.00,0.0035
1673.00,0.0052
1660.00,0.0096
1647.00,0.0243
1634.00,0.0556
1621.00,0.0349
1608.00,0.0214
1595.00,0.0271
1582.00,0.0576
1569.00,0.0585
1556.00,0.0365
1543.00,0.0230
1530.00,0.0199
1517.00,0.0167
1504.00,0.0109
1491.00,0.0094
1478.00,0.0120
1465.00,0.0216
1452.00,0.0463
1439.00,0.0577
1426.00,0.0328
1413.00,0.0279
1400.00,0.0307
1387.00,0.0257
1374.00,0.0331
1361.00,0.0295
1348.00,0.0386
1335.00,0.0356
1322.00,0.0430
1309.00,0.0315
1296.00,0.0287
1283.00,0.0425
1270.00,0.0249
1257.00,0.0194
1244.00,0.0367
1231.00,0.0226
1218.00,0.0224
1205.00,0.0372
1192.00,0.0155
1179.00,0.0186
1166.00,0.0247
1153.00,0.0187
1140.00,0.0109
1127.00,0.0069
1114.00,0.0066
1101.00,0.0126
1088.00,0.0086
1075.00,0.0080
1062.00,0.0135
1049.00,0.0250
1036.00,0.0398
1023.00,0.0239
1010.00,0.0134
997.00,0.0157
984.00,0.0118
971.00,0.0093
958.00,0.0153
945.00,0.0130
932.00,0.0114
919.00,0.0176
906.00,0.0173
893.00,0.0271
880.00,0.0303
867.00,0.0254
854.00,0.0384
841.00,0.0343
828.00,0.0254
815.00,0.0150
802.00,0.0261
789.00,0.0208
776.00,0.0177
763.00,0.0179
750.00,0.0140
737.00,0.0180
724.00,0.0155
711.00,0.0149
698.00,0.0146
685.00,0.0184
672.00,0.0208
659.00,0.0141
646.00,0.0139
633.00,0.0155
620.00,0.0135
607.00,0.0148
594.00,0.0143
581.00,0.0209
568.00,0.0109
555.00,0.0204
542.00,0.0173
529.00,0.0186
516.00,0.0135
503.00,0.0205
490.00,0.0410
477.00,0.0411
464.00,0.0391
451.00,0.0282
438.00,0.0240
425.00,0.0173
412.00,0.0146
400.00,0.0163

File: 2025_06_18_CBD_SorbicAcid_Cocrystal_Slurry_Vial_scan3.csv
Created as New Dataset,Sample 714 By YargerLab Date Wednesday, June 18 2025
cm-1,A
4000.00,0.0017
3987.00,0.0017
3974.00,0.0017
3961.00,0.0017
3948.00,0.0016
3935.00,0.0016
3922.00,0.0016
3909.00,0.0016
3896.00,0.0015
3883.00,0.0015
3870.00,0.0016
3857.00,0.0016
3844.00,0.0015
3831.00,0.0015
3818.00,0.0015
3805.00,0.0015
3792.00,0.0015
3779.00,0.0015
3766.00,0.0015
3753.00,0.0014
3740.00,0.0014
3727.00,0.0013
3714.00,0.0013
3701.00,0.0013
3688.00,0.0012
3675.00,0.0011
3662.00,0.0011
3649.00,0.0010
3636.00,0.0011
3623.00,0.0012
3610.00,0.0013
3597.00,0.0013
3584.00,0.0014
3571.00,0.0015
3558.00,0.0017
3545.00,0.0019
3532.00,0.0022
3519.00,0.0028
3506.00,0.0035
3493.00,0.0048
3480.00,0.0069
3467.00,0.0109
3454.00,0.0246
3441.00,0.0244
3428.00,0.0135
3415.00,0.0091
3402.00,0.0074
3389.00,0.0070
3376.00,0.0068
3363.00,0.0068
3350.00,0.0071
3337.00,0.0074
3324.00,0.0077
3311.00,0.0083
3298.00,0.0088
3285.00,0.0097
3272.00,0.0104
3259.00,0.0114
3246.00,0.0121
3233.00,0.0129
3220.00,0.0138
3207.00,0.0146
3194.00,0.0154
3181.00,0.0160
3168.00,0.0163
3155.00,0.0166
3142.00,0.0174
3129.00,0.0181
3116.00,0.0186
3103.00,0.0194
3090.00,0.0198
3077.00,0.0206
3064.00,0.0206
3051.00,0.0182
3038.00,0.0175
3025.00,0.0167
3012.00,0.0159
2999.00,0.0157
2986.00,0.0176
2973.00,0.0203
2960.00,0.0262
2947.00,0.0278
2934.00,0.0353
2921.00,0.0440
2908.00,0.0311
2895.00,0.0238
2882.00,0.0222
2869.00,0.0253
2856.00,0.0278
2843.00,0.0204
2830.00,0.0183
2817.00,0.0133
2804.00,0.0120
2791.00,0.0116
2778.00,0.0117
2765.00,0.0122
2752.00,0.0125
2739.00,0.0126
2726.00,0.0130
2713.00,0.0130
2700.00,0.0131
2687.00,0.0132
2674.00,0.0131
2661.00,0.0135
2648.00,0.0133
2635.00,0.0131
2622.00,0.0128
2609.00,0.0125
2596.00,0.0120
2583.00,0.0115
2570.00,0.0113
2557.00,0.0116
2544.00,0.0112
2531.00,0.0106
2518.00,0.0102
2505.00,0.0096
2492.00,0.0094
2479.00,0.0093
2466.00,0.0092
2453.00,0.0095
2440.00,0.0094
2427.00,0.0093
2414.00,0.0088
2401.00,0.0080
2388.00,0.0073
2375.00,0.0066
2362.00,0.0061
2349.00,0.0057
2336.00,0.0055
2323.00,0.0063
2310.00,0.0051
2297.00,0.0050
2284.00,0.0052
2271.00,0.0045
2258.00,0.0041
2245.00,0.0037
2232.00,0.0035
2219.00,0.0034
2206.00,0.0033
2193.00,0.0036
2180.00,0.0030
2167.00,0.0041
2154.00,-0.0003
2141.00,0.0009
2128.00,0.0006
2115.00,0.0021
2102.00,0.0019
2089.00,0.0018
2076.00,0.0019
2063.00,0.0014
2050.00,0.0026
2037.00,0.0019
2024.00,0.0013
2011.00,0.0016
1998.00,0.0010
1985.00,0.0019
1972.00,0.0004
1959.00,0.0003
1946.00,0.0009
1933.00,0.0009
1920.00,0.0012
1907.00,0.0012
1894.00,0.0011
1881.00,0.0013
1868.00,0.0014
1855.00,0.0014
1842.00,0.0014
1829.00,0.0014
1816.00,0.0012
1803.00,0.0018
1790.00,0.0022
1777.00,0.0024
1764.00,0.0024
1751.00,0.0024
1738.00,0.0026
1725.00,0.0030
1712.00,0.0035
1699.00,0.0039
1686.00,0.0044
1673.00,0.0061
1660.00,0.0112
1647.00,0.0278
1634.00,0.0632
1621.00,0.0404
1608.00,0.0250
1595.00,0.0313
1582.00,0.0654
1569.00,0.0667
1556.00,0.0422
1543.00,0.0268
1530.00,0.0232
1517.00,0.0195
1504.00,0.0128
1491.00,0.0111
1478.00,0.0141
1465.00,0.0248
1452.00,0.0526
1439.00,0.0660
1426.00,0.0382
1413.00,0.0323
1400.00,0.0353
1387.00,0.0298
1374.00,0.0380
1361.00,0.0342
1348.00,0.0442
1335.00,0.0410
1322.00,0.0491
1309.00,0.0363
1296.00,0.0332
1283.00,0.0486
1270.00,0.0286
1257.00,0.0226
1244.00,0.0421
1231.00,0.0263
1218.00,0.0261
1205.00,0.0427
1192.00,0.0183
1179.00,0.0217
1166.00,0.0285
1153.00,0.0217
1140.00,0.0129
1127.00,0.0084
1114.00,0.0080
1101.00,0.0149
1088.00,0.0102
1075.00,0.0095
1062.00,0.0158
1049.00,0.0289
1036.00,0.0455
1023.00,0.0279
1010.00,0.0159
997.00,0.0183
984.00,0.0139
971.00,0.0110
958.00,0.0178
945.00,0.0151
932.00,0.0133
919.00,0.0204
906.00,0.0201
893.00,0.0311
880.00,0.0348
867.00,0.0292
854.00,0.0440
841.00,0.0394
828.00,0.0295
815.00,0.0176
802.00,0.0303
789.00,0.0242
776.00,0.0206
763.00,0.0210
750.00,0.0164
737.00,0.0210
724.00,0.0182
711.00,0.0176
698.00,0.0172
685.00,0.0216
672.00,0.0241
659.00,0.0167
646.00,0.0165
633.00,0.0182
620.00,0.0158
607.00,0.0176
594.00,0.0170
581.00,0.0243
568.00,0.0127
555.00,0.0237
542.00,0.0205
529.00,0.0216
516.00,0.0158
503.00,0.0240
490.00,0.0466
477.00,0.0477
464.00,0.0457
451.00,0.0323
438.00,0.0284
425.00,0.0198
412.00,0.0176
400.00,0.0193

File: 2025_06_18_Std_Polystyrene_scan1.csv
Created as New Dataset,Sample 692 By YargerLab Date Friday, June 13 2025
cm-1,A
4000.00,0.0024
3987.00,0.0024
3974.00,0.0023
3961.00,0.0023
3948.00,0.0023
3935.00,0.0023
3922.00,0.0022
3909.00,0.0023
3896.00,0.0021
3883.00,0.0021
3870.00,0.0021
3857.00,0.0020
3844.00,0.0022
3831.00,0.0022
3818.00,0.0021
3805.00,0.0022
3792.00,0.0023
3779.00,0.0023
3766.00,0.0022
3753.00,0.0020
3740.00,0.0019
3727.00,0.0021
3714.00,0.0021
3701.00,0.0021
3688.00,0.0020
3675.00,0.0019
3662.00,0.0021
3649.00,0.0020
3636.00,0.0021
3623.00,0.0020
3610.00,0.0019
3597.00,0.0020
3584.00,0.0021
3571.00,0.0021
3558.00,0.0022
3545.00,0.0022
3532.00,0.0024
3519.00,0.0023
3506.00,0.0024
3493.00,0.0024
3480.00,0.0026
3467.00,0.0026
3454.00,0.0026
3441.00,0.0026
3428.00,0.0027
3415.00,0.0026
3402.00,0.0027
3389.00,0.0027
3376.00,0.0026
3363.00,0.0026
3350.00,0.0026
3337.00,0.0026
3324.00,0.0026
3311.00,0.0026
3298.00,0.0026
3285.00,0.0025
3272.00,0.0026
3259.00,0.0025
3246.00,0.0025
3233.00,0.0025
3220.00,0.0024
3207.00,0.0026
3194.00,0.0025
3181.00,0.0024
3168.00,0.0025
3155.00,0.0025
3142.00,0.0024
3129.00,0.0025
3116.00,0.0029
3103.00,0.0052
3090.00,0.0069
3077.00,0.0097
3064.00,0.0139
3051.00,0.0103
3038.00,0.0112
3025.00,0.0308
3012.00,0.0089
2999.00,0.0083
2986.00,0.0045
2973.00,0.0047
2960.00,0.0071
2947.00,0.0128
2934.00,0.0261
2921.00,0.0366
2908.00,0.0281
2895.00,0.0168
2882.00,0.0118
2869.00,0.0096
2856.00,0.0143
2843.00,0.0138
2830.00,0.0054
2817.00,0.0043
2804.00,0.0038
2791.00,0.0035
2778.00,0.0034
2765.00,0.0032
2752.00,0.0031
2739.00,0.0030
2726.00,0.0031
2713.00,0.0031
2700.00,0.0030
2687.00,0.0030
2674.00,0.0030
2661.00,0.0033
2648.00,0.0036
2635.00,0.0036
2622.00,0.0033
2609.00,0.0032
2596.00,0.0031
2583.00,0.0030
2570.00,0.0028
2557.00,0.0027
2544.00,0.0026
2531.00,0.0025
2518.00,0.0025
2505.00,0.0025
2492.00,0.0025
2479.00,0.0024
2466.00,0.0023
2453.00,0.0024
2440.00,0.0021
2427.00,0.0020
2414.00,0.0020
2401.00,0.0018
2388.00,0.0018
2375.00,0.0019
2362.00,0.0021
2349.00,0.0024
2336.00,0.0029
2323.00,0.0037
2310.00,0.0031
2297.00,0.0029
2284.00,0.0032
2271.00,0.0027
2258.00,0.0025
2245.00,0.0022
2232.00,0.0022
2219.00,0.0022
2206.00,0.0019
2193.00,0.0021
2180.00,0.0016
2167.00,0.0027
2154.00,-0.0005
2141.00,0.0000
2128.00,0.0002
2115.00,0.0017
2102.00,0.0016
2089.00,0.0016
2076.00,0.0017
2063.00,0.0012
2050.00,0.0021
2037.00,0.0020
2024.00,0.0003
2011.00,0.0011
1998.00,0.0014
1985.00,0.0025
1972.00,0.0011
1959.00,0.0023
1946.00,0.0044
1933.00,0.0029
1920.00,0.0017
1907.00,0.0017
1894.00,0.0026
1881.00,0.0039
1868.00,0.0045
1855.00,0.0024
1842.00,0.0018
1829.00,0.0023
1816.00,0.0034
1803.00,0.0053
1790.00,0.0034
1777.00,0.0029
1764.00,0.0032
1751.00,0.0054
1738.00,0.0062
1725.00,0.0049
1712.00,0.0039
1699.00,0.0036
1686.00,0.0040
1673.00,0.0044
1660.00,0.0043
1647.00,0.0036
1634.00,0.0035
1621.00,0.0044
1608.00,0.0126
1595.00,0.0162
1582.00,0.0129
1569.00,0.0044
1556.00,0.0041
1543.00,0.0055
1530.00,0.0044
1517.00,0.0039
1504.00,0.0070
1491.00,0.0688
1478.00,0.0090
1465.00,0.0089
1452.00,0.0774
1439.00,0.0281
1426.00,0.0089
1413.00,0.0066
1400.00,0.0065
1387.00,0.0107
1374.00,0.0167
1361.00,0.0155
1348.00,0.0139
1335.00,0.0125
1322.00,0.0133
1309.00,0.0136
1296.00,0.0110
1283.00,0.0100
1270.00,0.0080
1257.00,0.0074
1244.00,0.0080
1231.00,0.0076
1218.00,0.0077
1205.00,0.0095
1192.00,0.0118
1179.00,0.0151
1166.00,0.0092
1153.00,0.0157
1140.00,0.0068
1127.00,0.0064
1114.00,0.0089
1101.00,0.0091
1088.00,0.0112
1075.00,0.0181
1062.00,0.0178
1049.00,0.0119
1036.00,0.0168
1023.00,0.0290
1010.00,0.0154
997.00,0.0122
984.00,0.0139
971.00,0.0137
958.00,0.0132
945.00,0.0126
932.00,0.0093
919.00,0.0109
906.00,0.0263
893.00,0.0097
880.00,0.0070
867.00,0.0062
854.00,0.0068
841.00,0.0137
828.00,0.0062
815.00,0.0061
802.00,0.0071
789.00,0.0133
776.00,0.0336
763.00,0.0893
750.00,0.1153
737.00,0.0483
724.00,0.0134
711.00,0.0302
698.00,0.3263
685.00,0.1050
672.00,0.0472
659.00,0.0280
646.00,0.0178
633.00,0.0197
620.00,0.0239
607.00,0.0185
594.00,0.0203
581.00,0.0263
568.00,0.0445
555.00,0.0646
542.00,0.1026
529.00,0.0712
516.00,0.0353
503.00,0.0232
490.00,0.0174
477.00,0.0147
464.00,0.0142
451.00,0.0129
438.00,0.0121
425.00,0.0104
412.00,0.0112
400.00,0.0089

File: 2025_06_18_Std_Polystyrene_scan2.csv
Created as New Dataset,Sample 693 By YargerLab Date Wednesday, June 18 2025
cm-1,A
4000.00,0.0019
3987.00,0.0019
3974.00,0.0019
3961.00,0.0018
3948.00,0.0018
3935.00,0.0018
3922.00,0.0018
3909.00,0.0018
3896.00,0.0018
3883.00,0.0019
3870.00,0.0019
3857.00,0.0020
3844.00,0.0019
3831.00,0.0019
3818.00,0.0021
3805.00,0.0021
3792.00,0.0018
3779.00,0.0018
3766.00,0.0018
3753.00,0.0020
3740.00,0.0019
3727.00,0.0017
3714.00,0.0018
3701.00,0.0017
3688.00,0.0019
3675.00,0.0018
3662.00,0.0016
3649.00,0.0018
3636.00,0.0016
3623.00,0.0017
3610.00,0.0016
3597.00,0.0016
3584.00,0.0016
3571.00,0.0016
3558.00,0.0016
3545.00,0.0016
3532.00,0.0017
3519.00,0.0017
3506.00,0.0019
3493.00,0.0018
3480.00,0.0020
3467.00,0.0019
3454.00,0.0019
3441.00,0.0019
3428.00,0.0020
3415.00,0.0018
3402.00,0.0019
3389.00,0.0019
3376.00,0.0018
3363.00,0.0019
3350.00,0.0019
3337.00,0.0019
3324.00,0.0019
3311.00,0.0019
3298.00,0.0018
3285.00,0.0018
3272.00,0.0018
3259.00,0.0018
3246.00,0.0017
3233.00,0.0017
3220.00,0.0017
3207.00,0.0018
3194.00,0.0018
3181.00,0.0017
3168.00,0.0019
3155.00,0.0017
3142.00,0.0017
3129.00,0.0018
3116.00,0.0023
3103.00,0.0044
3090.00,0.0059
3077.00,0.0086
3064.00,0.0125
3051.00,0.0092
3038.00,0.0099
3025.00,0.0283
3012.00,0.0079
2999.00,0.0072
2986.00,0.0035
2973.00,0.0036
2960.00,0.0056
2947.00,0.0110
2934.00,0.0230
2921.00,0.0326
2908.00,0.0252
2895.00,0.0148
2882.00,0.0102
2869.00,0.0080
2856.00,0.0122
2843.00,0.0121
2830.00,0.0043
2817.00,0.0033
2804.00,0.0030
2791.00,0.0027
2778.00,0.0026
2765.00,0.0024
2752.00,0.0022
2739.00,0.0022
2726.00,0.0023
2713.00,0.0023
2700.00,0.0022
2687.00,0.0022
2674.00,0.0022
2661.00,0.0026
2648.00,0.0027
2635.00,0.0028
2622.00,0.0025
2609.00,0.0024
2596.00,0.0024
2583.00,0.0022
2570.00,0.0020
2557.00,0.0019
2544.00,0.0018
2531.00,0.0018
2518.00,0.0018
2505.00,0.0017
2492.00,0.0016
2479.00,0.0016
2466.00,0.0016
2453.00,0.0017
2440.00,0.0014
2427.00,0.0013
2414.00,0.0013
2401.00,0.0011
2388.00,0.0011
2375.00,0.0013
2362.00,0.0015
2349.00,0.0018
2336.00,0.0023
2323.00,0.0032
2310.00,0.0025
2297.00,0.0023
2284.00,0.0025
2271.00,0.0019
2258.00,0.0017
2245.00,0.0016
2232.00,0.0014
2219.00,0.0013
2206.00,0.0013
2193.00,0.0014
2180.00,0.0008
2167.00,0.0021
2154.00,-0.0012
2141.00,-0.0007
2128.00,-0.0003
2115.00,0.0011
2102.00,0.0009
2089.00,0.0008
2076.00,0.0010
2063.00,0.0007
2050.00,0.0014
2037.00,0.0010
2024.00,-0.0004
2011.00,0.0004
1998.00,0.0005
1985.00,0.0018
1972.00,0.0005
1959.00,0.0016
1946.00,0.0036
1933.00,0.0022
1920.00,0.0010
1907.00,0.0009
1894.00,0.0019
1881.00,0.0031
1868.00,0.0036
1855.00,0.0017
1842.00,0.0011
1829.00,0.0015
1816.00,0.0026
1803.00,0.0043
1790.00,0.0025
1777.00,0.0020
1764.00,0.0022
1751.00,0.0040
1738.00,0.0045
1725.00,0.0033
1712.00,0.0027
1699.00,0.0026
1686.00,0.0028
1673.00,0.0033
1660.00,0.0031
1647.00,0.0025
1634.00,0.0024
1621.00,0.0031
1608.00,0.0108
1595.00,0.0141
1582.00,0.0110
1569.00,0.0031
1556.00,0.0030
1543.00,0.0042
1530.00,0.0032
1517.00,0.0029
1504.00,0.0060
1491.00,0.0638
1478.00,0.0076
1465.00,0.0075
1452.00,0.0713
1439.00,0.0253
1426.00,0.0072
1413.00,0.0051
1400.00,0.0049
1387.00,0.0088
1374.00,0.0145
1361.00,0.0134
1348.00,0.0121
1335.00,0.0108
1322.00,0.0115
1309.00,0.0118
1296.00,0.0094
1283.00,0.0084
1270.00,0.0066
1257.00,0.0060
1244.00,0.0064
1231.00,0.0061
1218.00,0.0063
1205.00,0.0080
1192.00,0.0101
1179.00,0.0132
1166.00,0.0076
1153.00,0.0138
1140.00,0.0054
1127.00,0.0050
1114.00,0.0074
1101.00,0.0078
1088.00,0.0099
1075.00,0.0164
1062.00,0.0162
1049.00,0.0105
1036.00,0.0152
1023.00,0.0268
1010.00,0.0139
997.00,0.0108
984.00,0.0126
971.00,0.0123
958.00,0.0118
945.00,0.0113
932.00,0.0083
919.00,0.0098
906.00,0.0244
893.00,0.0086
880.00,0.0061
867.00,0.0053
854.00,0.0060
841.00,0.0125
828.00,0.0054
815.00,0.0054
802.00,0.0064
789.00,0.0123
776.00,0.0315
763.00,0.0840
750.00,0.1084
737.00,0.0454
724.00,0.0123
711.00,0.0285
698.00,0.3077
685.00,0.0996
672.00,0.0446
659.00,0.0263
646.00,0.0162
633.00,0.0185
620.00,0.0224
607.00,0.0172
594.00,0.0190
581.00,0.0248
568.00,0.0421
555.00,0.0613
542.00,0.0971
529.00,0.0679
516.00,0.0338
503.00,0.0221
490.00,0.0167
477.00,0.0144
464.00,0.0136
451.00,0.0114
438.00,0.0105
425.00,0.0093
412.00,0.0120
400.00,0.0093

File: 2025_06_18_Std_Polystyrene_scan3.csv
Created as New Dataset,Sample 694 By YargerLab Date Wednesday, June 18 2025
cm-1,A
4000.00,0.0017
3987.00,0.0016
3974.00,0.0017
3961.00,0.0016
3948.00,0.0016
3935.00,0.0016
3922.00,0.0016
3909.00,0.0016
3896.00,0.0016
3883.00,0.0017
3870.00,0.0017
3857.00,0.0018
3844.00,0.0016
3831.00,0.0017
3818.00,0.0018
3805.00,0.0018
3792.00,0.0017
3779.00,0.0016
3766.00,0.0016
3753.00,0.0018
3740.00,0.0016
3727.00,0.0016
3714.00,0.0016
3701.00,0.0015
3688.00,0.0017
3675.00,0.0016
3662.00,0.0014
3649.00,0.0017
3636.00,0.0014
3623.00,0.0015
3610.00,0.0015
3597.00,0.0014
3584.00,0.0014
3571.00,0.0014
3558.00,0.0014
3545.00,0.0015
3532.00,0.0015
3519.00,0.0015
3506.00,0.0016
3493.00,0.0016
3480.00,0.0017
3467.00,0.0017
3454.00,0.0017
3441.00,0.0018
3428.00,0.0017
3415.00,0.0016
3402.00,0.0018
3389.00,0.0018
3376.00,0.0016
3363.00,0.0016
3350.00,0.0017
3337.00,0.0017
3324.00,0.0017
3311.00,0.0017
3298.00,0.0017
3285.00,0.0016
3272.00,0.0016
3259.00,0.0016
3246.00,0.0016
3233.00,0.0016
3220.00,0.0016
3207.00,0.0017
3194.00,0.0016
3181.00,0.0016
3168.00,0.0017
3155.00,0.0016
3142.00,0.0016
3129.00,0.0017
3116.00,0.0022
3103.00,0.0046
3090.00,0.0062
3077.00,0.0091
3064.00,0.0134
3051.00,0.0097
3038.00,0.0106
3025.00,0.0305
3012.00,0.0083
2999.00,0.0076
2986.00,0.0035
2973.00,0.0036
2960.00,0.0057
2947.00,0.0115
2934.00,0.0246
2921.00,0.0348
2908.00,0.0267
2895.00,0.0155
2882.00,0.0107
2869.00,0.0083
2856.00,0.0128
2843.00,0.0126
2830.00,0.0045
2817.00,0.0035
2804.00,0.0031
2791.00,0.0028
2778.00,0.0027
2765.00,0.0025
2752.00,0.0024
2739.00,0.0023
2726.00,0.0024
2713.00,0.0024
2700.00,0.0024
2687.00,0.0024
2674.00,0.0023
2661.00,0.0027
2648.00,0.0029
2635.00,0.0029
2622.00,0.0027
2609.00,0.0026
2596.00,0.0025
2583.00,0.0024
2570.00,0.0022
2557.00,0.0020
2544.00,0.0020
2531.00,0.0019
2518.00,0.0019
2505.00,0.0019
2492.00,0.0019
2479.00,0.0017
2466.00,0.0017
2453.00,0.0018
2440.00,0.0016
2427.00,0.0015
2414.00,0.0015
2401.00,0.0012
2388.00,0.0013
2375.00,0.0014
2362.00,0.0017
2349.00,0.0020
2336.00,0.0025
2323.00,0.0034
2310.00,0.0028
2297.00,0.0025
2284.00,0.0027
2271.00,0.0022
2258.00,0.0019
2245.00,0.0017
2232.00,0.0016
2219.00,0.0017
2206.00,0.0014
2193.00,0.0013
2180.00,0.0012
2167.00,0.0021
2154.00,-0.0011
2141.00,-0.0004
2128.00,-0.0002
2115.00,0.0012
2102.00,0.0012
2089.00,0.0011
2076.00,0.0012
2063.00,0.0007
2050.00,0.0016
2037.00,0.0014
2024.00,-0.0001
2011.00,0.0004
1998.00,0.0009
1985.00,0.0019
1972.00,0.0007
1959.00,0.0020
1946.00,0.0040
1933.00,0.0024
1920.00,0.0011
1907.00,0.0013
1894.00,0.0022
1881.00,0.0036
1868.00,0.0041
1855.00,0.0021
1842.00,0.0014
1829.00,0.0019
1816.00,0.0031
1803.00,0.0049
1790.00,0.0029
1777.00,0.0024
1764.00,0.0027
1751.00,0.0044
1738.00,0.0048
1725.00,0.0036
1712.00,0.0030
1699.00,0.0030
1686.00,0.0032
1673.00,0.0036
1660.00,0.0035
1647.00,0.0028
1634.00,0.0028
1621.00,0.0034
1608.00,0.0116
1595.00,0.0153
1582.00,0.0120
1569.00,0.0034
1556.00,0.0033
1543.00,0.0046
1530.00,0.0036
1517.00,0.0032
1504.00,0.0066
1491.00,0.0690
1478.00,0.0083
1465.00,0.0080
1452.00,0.0773
1439.00,0.0273
1426.00,0.0079
1413.00,0.0056
1400.00,0.0054
1387.00,0.0096
1374.00,0.0157
1361.00,0.0146
1348.00,0.0132
1335.00,0.0118
1322.00,0.0126
1309.00,0.0130
1296.00,0.0103
1283.00,0.0093
1270.00,0.0073
1257.00,0.0065
1244.00,0.0070
1231.00,0.0068
1218.00,0.0069
1205.00,0.0089
1192.00,0.0111
1179.00,0.0144
1166.00,0.0083
1153.00,0.0149
1140.00,0.0060
1127.00,0.0056
1114.00,0.0079
1101.00,0.0082
1088.00,0.0105
1075.00,0.0176
1062.00,0.0174
1049.00,0.0113
1036.00,0.0163
1023.00,0.0288
1010.00,0.0150
997.00,0.0119
984.00,0.0136
971.00,0.0135
958.00,0.0128
945.00,0.0124
932.00,0.0091
919.00,0.0108
906.00,0.0265
893.00,0.0095
880.00,0.0068
867.00,0.0060
854.00,0.0066
841.00,0.0137
828.00,0.0061
815.00,0.0059
802.00,0.0069
789.00,0.0133
776.00,0.0340
763.00,0.0906
750.00,0.1170
737.00,0.0486
724.00,0.0134
711.00,0.0304
698.00,0.3383
685.00,0.1071
672.00,0.0479
659.00,0.0283
646.00,0.0179
633.00,0.0199
620.00,0.0242
607.00,0.0185
594.00,0.0206
581.00,0.0264
568.00,0.0450
555.00,0.0660
542.00,0.1038
529.00,0.0727
516.00,0.0357
503.00,0.0239
490.00,0.0176
477.00,0.0150
464.00,0.0148
451.00,0.0128
438.00,0.0114
425.00,0.0118
412.00,0.0094
400.00,0.0070