Folder: Data/FTIR/Olivia (part 12)

File: 2025_07_31_Polystyrene_Std_scan1.csv
Created as New Dataset,Sample 1000 By YargerLab Date Thursday, July 31 2025
cm-1,A
4000.00,0.0002
3987.00,0.0001
3974.00,0.0001
3961.00,0.0002
3948.00,0.0001
3935.00,0.0001
3922.00,0.0001
3909.00,0.0002
3896.00,0.0000
3883.00,0.0001
3870.00,0.0001
3857.00,0.0000
3844.00,0.0001
3831.00,0.0001
3818.00,-0.0000
3805.00,0.0002
3792.00,0.0002
3779.00,0.0002
3766.00,0.0002
3753.00,0.0001
3740.00,0.0000
3727.00,0.0001
3714.00,0.0000
3701.00,0.0001
3688.00,-0.0000
3675.00,-0.0001
3662.00,0.0001
3649.00,-0.0000
3636.00,0.0000
3623.00,0.0001
3610.00,0.0000
3597.00,0.0001
3584.00,0.0001
3571.00,0.0002
3558.00,0.0002
3545.00,0.0002
3532.00,0.0004
3519.00,0.0003
3506.00,0.0004
3493.00,0.0004
3480.00,0.0005
3467.00,0.0006
3454.00,0.0005
3441.00,0.0006
3428.00,0.0005
3415.00,0.0005
3402.00,0.0005
3389.00,0.0006
3376.00,0.0005
3363.00,0.0006
3350.00,0.0006
3337.00,0.0005
3324.00,0.0006
3311.00,0.0005
3298.00,0.0005
3285.00,0.0005
3272.00,0.0006
3259.00,0.0005
3246.00,0.0004
3233.00,0.0005
3220.00,0.0004
3207.00,0.0005
3194.00,0.0005
3181.00,0.0004
3168.00,0.0004
3155.00,0.0004
3142.00,0.0004
3129.00,0.0004
3116.00,0.0005
3103.00,0.0014
3090.00,0.0018
3077.00,0.0030
3064.00,0.0040
3051.00,0.0031
3038.00,0.0031
3025.00,0.0095
3012.00,0.0025
2999.00,0.0021
2986.00,0.0008
2973.00,0.0010
2960.00,0.0020
2947.00,0.0039
2934.00,0.0081
2921.00,0.0117
2908.00,0.0089
2895.00,0.0051
2882.00,0.0034
2869.00,0.0028
2856.00,0.0043
2843.00,0.0042
2830.00,0.0012
2817.00,0.0008
2804.00,0.0007
2791.00,0.0006
2778.00,0.0005
2765.00,0.0005
2752.00,0.0004
2739.00,0.0005
2726.00,0.0005
2713.00,0.0005
2700.00,0.0005
2687.00,0.0005
2674.00,0.0004
2661.00,0.0008
2648.00,0.0009
2635.00,0.0009
2622.00,0.0009
2609.00,0.0008
2596.00,0.0007
2583.00,0.0006
2570.00,0.0004
2557.00,0.0004
2544.00,0.0004
2531.00,0.0003
2518.00,0.0003
2505.00,0.0002
2492.00,0.0003
2479.00,0.0002
2466.00,0.0002
2453.00,0.0004
2440.00,0.0002
2427.00,0.0001
2414.00,0.0000
2401.00,-0.0001
2388.00,-0.0002
2375.00,-0.0002
2362.00,-0.0001
2349.00,0.0000
2336.00,0.0003
2323.00,0.0013
2310.00,0.0008
2297.00,0.0008
2284.00,0.0011
2271.00,0.0006
2258.00,0.0007
2245.00,0.0002
2232.00,0.0005
2219.00,0.0003
2206.00,0.0002
2193.00,0.0004
2180.00,0.0001
2167.00,0.0009
2154.00,-0.0021
2141.00,-0.0011
2128.00,-0.0011
2115.00,-0.0001
2102.00,-0.0000
2089.00,-0.0001
2076.00,0.0003
2063.00,0.0000
2050.00,0.0007
2037.00,0.0001
2024.00,-0.0006
2011.00,-0.0004
1998.00,-0.0002
1985.00,0.0005
1972.00,-0.0008
1959.00,-0.0006
1946.00,0.0006
1933.00,0.0001
1920.00,-0.0002
1907.00,-0.0003
1894.00,0.0001
1881.00,0.0006
1868.00,0.0009
1855.00,0.0001
1842.00,-0.0001
1829.00,0.0001
1816.00,0.0004
1803.00,0.0013
1790.00,0.0007
1777.00,0.0006
1764.00,0.0008
1751.00,0.0016
1738.00,0.0020
1725.00,0.0017
1712.00,0.0012
1699.00,0.0013
1686.00,0.0018
1673.00,0.0020
1660.00,0.0021
1647.00,0.0016
1634.00,0.0012
1621.00,0.0015
1608.00,0.0040
1595.00,0.0055
1582.00,0.0043
1569.00,0.0012
1556.00,0.0010
1543.00,0.0017
1530.00,0.0012
1517.00,0.0011
1504.00,0.0022
1491.00,0.0248
1478.00,0.0031
1465.00,0.0034
1452.00,0.0261
1439.00,0.0104
1426.00,0.0033
1413.00,0.0023
1400.00,0.0022
1387.00,0.0035
1374.00,0.0057
1361.00,0.0055
1348.00,0.0049
1335.00,0.0044
1322.00,0.0048
1309.00,0.0049
1296.00,0.0043
1283.00,0.0040
1270.00,0.0031
1257.00,0.0027
1244.00,0.0029
1231.00,0.0029
1218.00,0.0031
1205.00,0.0038
1192.00,0.0048
1179.00,0.0060
1166.00,0.0038
1153.00,0.0063
1140.00,0.0027
1127.00,0.0028
1114.00,0.0037
1101.00,0.0039
1088.00,0.0046
1075.00,0.0073
1062.00,0.0075
1049.00,0.0050
1036.00,0.0069
1023.00,0.0116
1010.00,0.0063
997.00,0.0051
984.00,0.0057
971.00,0.0057
958.00,0.0054
945.00,0.0052
932.00,0.0040
919.00,0.0047
906.00,0.0109
893.00,0.0042
880.00,0.0030
867.00,0.0027
854.00,0.0030
841.00,0.0059
828.00,0.0027
815.00,0.0027
802.00,0.0031
789.00,0.0057
776.00,0.0143
763.00,0.0369
750.00,0.0475
737.00,0.0207
724.00,0.0058
711.00,0.0131
698.00,0.1293
685.00,0.0507
672.00,0.0227
659.00,0.0137
646.00,0.0085
633.00,0.0092
620.00,0.0111
607.00,0.0086
594.00,0.0097
581.00,0.0128
568.00,0.0212
555.00,0.0307
542.00,0.0480
529.00,0.0357
516.00,0.0182
503.00,0.0124
490.00,0.0096
477.00,0.0084
464.00,0.0083
451.00,0.0073
438.00,0.0070
425.00,0.0045
412.00,0.0054
400.00,0.0082

File: 2025_07_31_Polystyrene_Std_scan2.csv
Created as New Dataset,Sample 1002 By YargerLab Date Thursday, July 31 2025
cm-1,A
4000.00,0.0003
3987.00,0.0003
3974.00,0.0003
3961.00,0.0003
3948.00,0.0003
3935.00,0.0003
3922.00,0.0003
3909.00,0.0004
3896.00,0.0002
3883.00,0.0002
3870.00,0.0002
3857.00,0.0002
3844.00,0.0003
3831.00,0.0003
3818.00,0.0002
3805.00,0.0003
3792.00,0.0004
3779.00,0.0003
3766.00,0.0003
3753.00,0.0003
3740.00,0.0002
3727.00,0.0002
3714.00,0.0002
3701.00,0.0003
3688.00,0.0001
3675.00,0.0001
3662.00,0.0003
3649.00,0.0000
3636.00,0.0002
3623.00,0.0002
3610.00,0.0002
3597.00,0.0002
3584.00,0.0002
3571.00,0.0003
3558.00,0.0004
3545.00,0.0004
3532.00,0.0005
3519.00,0.0005
3506.00,0.0005
3493.00,0.0005
3480.00,0.0006
3467.00,0.0006
3454.00,0.0006
3441.00,0.0007
3428.00,0.0006
3415.00,0.0006
3402.00,0.0006
3389.00,0.0007
3376.00,0.0006
3363.00,0.0006
3350.00,0.0006
3337.00,0.0006
3324.00,0.0007
3311.00,0.0006
3298.00,0.0006
3285.00,0.0006
3272.00,0.0006
3259.00,0.0006
3246.00,0.0005
3233.00,0.0005
3220.00,0.0005
3207.00,0.0005
3194.00,0.0004
3181.00,0.0004
3168.00,0.0004
3155.00,0.0004
3142.00,0.0004
3129.00,0.0004
3116.00,0.0006
3103.00,0.0012
3090.00,0.0016
3077.00,0.0026
3064.00,0.0034
3051.00,0.0027
3038.00,0.0028
3025.00,0.0081
3012.00,0.0021
2999.00,0.0017
2986.00,0.0004
2973.00,0.0004
2960.00,0.0010
2947.00,0.0027
2934.00,0.0059
2921.00,0.0086
2908.00,0.0069
2895.00,0.0039
2882.00,0.0026
2869.00,0.0020
2856.00,0.0029
2843.00,0.0033
2830.00,0.0010
2817.00,0.0007
2804.00,0.0006
2791.00,0.0006
2778.00,0.0005
2765.00,0.0005
2752.00,0.0005
2739.00,0.0005
2726.00,0.0005
2713.00,0.0005
2700.00,0.0005
2687.00,0.0005
2674.00,0.0005
2661.00,0.0008
2648.00,0.0009
2635.00,0.0009
2622.00,0.0008
2609.00,0.0008
2596.00,0.0007
2583.00,0.0006
2570.00,0.0005
2557.00,0.0005
2544.00,0.0005
2531.00,0.0003
2518.00,0.0003
2505.00,0.0003
2492.00,0.0003
2479.00,0.0003
2466.00,0.0003
2453.00,0.0004
2440.00,0.0003
2427.00,0.0002
2414.00,0.0001
2401.00,-0.0001
2388.00,-0.0001
2375.00,-0.0001
2362.00,0.0001
2349.00,0.0003
2336.00,0.0005
2323.00,0.0014
2310.00,0.0008
2297.00,0.0008
2284.00,0.0010
2271.00,0.0007
2258.00,0.0007
2245.00,0.0003
2232.00,0.0005
2219.00,0.0003
2206.00,0.0003
2193.00,0.0006
2180.00,0.0002
2167.00,0.0008
2154.00,-0.0018
2141.00,-0.0011
2128.00,-0.0010
2115.00,-0.0000
2102.00,-0.0000
2089.00,0.0000
2076.00,0.0001
2063.00,-0.0002
2050.00,0.0010
2037.00,0.0002
2024.00,-0.0005
2011.00,-0.0005
1998.00,-0.0003
1985.00,0.0006
1972.00,-0.0008
1959.00,-0.0004
1946.00,0.0004
1933.00,0.0001
1920.00,-0.0002
1907.00,-0.0002
1894.00,-0.0001
1881.00,0.0004
1868.00,0.0007
1855.00,0.0000
1842.00,-0.0002
1829.00,0.0000
1816.00,0.0003
1803.00,0.0010
1790.00,0.0006
1777.00,0.0004
1764.00,0.0006
1751.00,0.0012
1738.00,0.0015
1725.00,0.0012
1712.00,0.0008
1699.00,0.0008
1686.00,0.0013
1673.00,0.0014
1660.00,0.0014
1647.00,0.0011
1634.00,0.0009
1621.00,0.0010
1608.00,0.0032
1595.00,0.0045
1582.00,0.0034
1569.00,0.0009
1556.00,0.0008
1543.00,0.0013
1530.00,0.0010
1517.00,0.0009
1504.00,0.0018
1491.00,0.0209
1478.00,0.0025
1465.00,0.0026
1452.00,0.0217
1439.00,0.0085
1426.00,0.0026
1413.00,0.0018
1400.00,0.0016
1387.00,0.0028
1374.00,0.0046
1361.00,0.0044
1348.00,0.0040
1335.00,0.0037
1322.00,0.0040
1309.00,0.0040
1296.00,0.0034
1283.00,0.0031
1270.00,0.0025
1257.00,0.0021
1244.00,0.0022
1231.00,0.0023
1218.00,0.0024
1205.00,0.0030
1192.00,0.0038
1179.00,0.0049
1166.00,0.0030
1153.00,0.0051
1140.00,0.0021
1127.00,0.0022
1114.00,0.0032
1101.00,0.0033
1088.00,0.0039
1075.00,0.0062
1062.00,0.0063
1049.00,0.0044
1036.00,0.0061
1023.00,0.0100
1010.00,0.0056
997.00,0.0045
984.00,0.0051
971.00,0.0048
958.00,0.0045
945.00,0.0043
932.00,0.0033
919.00,0.0039
906.00,0.0091
893.00,0.0035
880.00,0.0025
867.00,0.0022
854.00,0.0024
841.00,0.0047
828.00,0.0021
815.00,0.0021
802.00,0.0024
789.00,0.0046
776.00,0.0114
763.00,0.0293
750.00,0.0377
737.00,0.0167
724.00,0.0048
711.00,0.0106
698.00,0.0960
685.00,0.0393
672.00,0.0178
659.00,0.0106
646.00,0.0066
633.00,0.0072
620.00,0.0088
607.00,0.0067
594.00,0.0076
581.00,0.0101
568.00,0.0166
555.00,0.0237
542.00,0.0376
529.00,0.0284
516.00,0.0143
503.00,0.0096
490.00,0.0077
477.00,0.0070
464.00,0.0071
451.00,0.0056
438.00,0.0063
425.00,0.0038
412.00,0.0049
400.00,0.0084

File: 2025_07_31_Polystyrene_Std_scan3.csv
Created as New Dataset,Sample 1003 By YargerLab Date Thursday, July 31 2025
cm-1,A
4000.00,0.0001
3987.00,-0.0000
3974.00,-0.0000
3961.00,-0.0000
3948.00,0.0000
3935.00,-0.0001
3922.00,-0.0001
3909.00,0.0000
3896.00,-0.0001
3883.00,-0.0002
3870.00,-0.0001
3857.00,-0.0001
3844.00,-0.0000
3831.00,-0.0001
3818.00,-0.0001
3805.00,0.0001
3792.00,0.0001
3779.00,0.0000
3766.00,0.0000
3753.00,-0.0000
3740.00,-0.0002
3727.00,-0.0001
3714.00,-0.0001
3701.00,-0.0000
3688.00,-0.0001
3675.00,-0.0001
3662.00,-0.0001
3649.00,-0.0002
3636.00,-0.0001
3623.00,-0.0001
3610.00,-0.0002
3597.00,-0.0001
3584.00,-0.0001
3571.00,-0.0001
3558.00,0.0001
3545.00,-0.0000
3532.00,0.0001
3519.00,0.0001
3506.00,0.0001
3493.00,0.0002
3480.00,0.0002
3467.00,0.0003
3454.00,0.0002
3441.00,0.0003
3428.00,0.0002
3415.00,0.0002
3402.00,0.0002
3389.00,0.0002
3376.00,0.0002
3363.00,0.0002
3350.00,0.0001
3337.00,0.0001
3324.00,0.0001
3311.00,0.0002
3298.00,0.0002
3285.00,0.0002
3272.00,0.0002
3259.00,0.0001
3246.00,0.0000
3233.00,0.0001
3220.00,0.0001
3207.00,0.0001
3194.00,0.0001
3181.00,0.0000
3168.00,0.0001
3155.00,0.0001
3142.00,0.0001
3129.00,0.0001
3116.00,0.0003
3103.00,0.0011
3090.00,0.0016
3077.00,0.0028
3064.00,0.0039
3051.00,0.0029
3038.00,0.0030
3025.00,0.0096
3012.00,0.0023
2999.00,0.0019
2986.00,0.0003
2973.00,0.0003
2960.00,0.0010
2947.00,0.0031
2934.00,0.0071
2921.00,0.0104
2908.00,0.0081
2895.00,0.0044
2882.00,0.0028
2869.00,0.0021
2856.00,0.0034
2843.00,0.0037
2830.00,0.0009
2817.00,0.0006
2804.00,0.0004
2791.00,0.0004
2778.00,0.0003
2765.00,0.0003
2752.00,0.0002
2739.00,0.0002
2726.00,0.0003
2713.00,0.0002
2700.00,0.0003
2687.00,0.0003
2674.00,0.0002
2661.00,0.0005
2648.00,0.0007
2635.00,0.0007
2622.00,0.0006
2609.00,0.0006
2596.00,0.0005
2583.00,0.0004
2570.00,0.0002
2557.00,0.0002
2544.00,0.0002
2531.00,0.0001
2518.00,0.0000
2505.00,0.0001
2492.00,0.0001
2479.00,-0.0001
2466.00,-0.0000
2453.00,0.0002
2440.00,-0.0000
2427.00,-0.0001
2414.00,-0.0001
2401.00,-0.0003
2388.00,-0.0003
2375.00,-0.0003
2362.00,-0.0001
2349.00,0.0001
2336.00,0.0003
2323.00,0.0013
2310.00,0.0006
2297.00,0.0006
2284.00,0.0008
2271.00,0.0003
2258.00,0.0005
2245.00,0.0001
2232.00,0.0001
2219.00,0.0001
2206.00,-0.0000
2193.00,0.0002
2180.00,-0.0000
2167.00,0.0008
2154.00,-0.0021
2141.00,-0.0015
2128.00,-0.0014
2115.00,-0.0002
2102.00,-0.0002
2089.00,-0.0002
2076.00,0.0000
2063.00,-0.0003
2050.00,0.0006
2037.00,-0.0001
2024.00,-0.0006
2011.00,-0.0007
1998.00,-0.0004
1985.00,0.0005
1972.00,-0.0009
1959.00,-0.0005
1946.00,0.0006
1933.00,0.0003
1920.00,-0.0004
1907.00,-0.0003
1894.00,-0.0001
1881.00,0.0005
1868.00,0.0007
1855.00,-0.0000
1842.00,-0.0002
1829.00,0.0001
1816.00,0.0004
1803.00,0.0012
1790.00,0.0006
1777.00,0.0004
1764.00,0.0006
1751.00,0.0013
1738.00,0.0015
1725.00,0.0011
1712.00,0.0008
1699.00,0.0009
1686.00,0.0014
1673.00,0.0016
1660.00,0.0015
1647.00,0.0011
1634.00,0.0008
1621.00,0.0010
1608.00,0.0038
1595.00,0.0054
1582.00,0.0041
1569.00,0.0009
1556.00,0.0008
1543.00,0.0015
1530.00,0.0010
1517.00,0.0009
1504.00,0.0020
1491.00,0.0260
1478.00,0.0029
1465.00,0.0029
1452.00,0.0273
1439.00,0.0103
1426.00,0.0028
1413.00,0.0019
1400.00,0.0017
1387.00,0.0033
1374.00,0.0055
1361.00,0.0053
1348.00,0.0047
1335.00,0.0043
1322.00,0.0047
1309.00,0.0048
1296.00,0.0040
1283.00,0.0036
1270.00,0.0028
1257.00,0.0023
1244.00,0.0024
1231.00,0.0024
1218.00,0.0026
1205.00,0.0035
1192.00,0.0044
1179.00,0.0058
1166.00,0.0033
1153.00,0.0060
1140.00,0.0023
1127.00,0.0023
1114.00,0.0034
1101.00,0.0036
1088.00,0.0043
1075.00,0.0074
1062.00,0.0073
1049.00,0.0048
1036.00,0.0069
1023.00,0.0120
1010.00,0.0063
997.00,0.0050
984.00,0.0058
971.00,0.0056
958.00,0.0054
945.00,0.0051
932.00,0.0038
919.00,0.0046
906.00,0.0113
893.00,0.0040
880.00,0.0028
867.00,0.0024
854.00,0.0028
841.00,0.0058
828.00,0.0025
815.00,0.0025
802.00,0.0029
789.00,0.0057
776.00,0.0149
763.00,0.0389
750.00,0.0502
737.00,0.0216
724.00,0.0058
711.00,0.0136
698.00,0.1378
685.00,0.0532
672.00,0.0235
659.00,0.0140
646.00,0.0084
633.00,0.0093
620.00,0.0113
607.00,0.0085
594.00,0.0098
581.00,0.0129
568.00,0.0218
555.00,0.0316
542.00,0.0503
529.00,0.0376
516.00,0.0187
503.00,0.0124
490.00,0.0096
477.00,0.0084
464.00,0.0076
451.00,0.0071
438.00,0.0062
425.00,0.0050
412.00,0.0060
400.00,0.0104

File: 2025_08_01_1CBN_3PVP10_drybatchpowder_scan1.csv
Created as New Dataset,Sample 1012 By YargerLab Date Friday, August 01 2025
cm-1,A
4000.00,0.0093
3987.00,0.0092
3974.00,0.0092
3961.00,0.0092
3948.00,0.0092
3935.00,0.0093
3922.00,0.0093
3909.00,0.0092
3896.00,0.0093
3883.00,0.0094
3870.00,0.0094
3857.00,0.0094
3844.00,0.0094
3831.00,0.0093
3818.00,0.0095
3805.00,0.0094
3792.00,0.0092
3779.00,0.0092
3766.00,0.0092
3753.00,0.0095
3740.00,0.0094
3727.00,0.0091
3714.00,0.0092
3701.00,0.0090
3688.00,0.0093
3675.00,0.0095
3662.00,0.0095
3649.00,0.0103
3636.00,0.0105
3623.00,0.0112
3610.00,0.0122
3597.00,0.0130
3584.00,0.0142
3571.00,0.0155
3558.00,0.0168
3545.00,0.0182
3532.00,0.0194
3519.00,0.0204
3506.00,0.0213
3493.00,0.0222
3480.00,0.0230
3467.00,0.0240
3454.00,0.0249
3441.00,0.0259
3428.00,0.0270
3415.00,0.0283
3402.00,0.0290
3389.00,0.0284
3376.00,0.0274
3363.00,0.0263
3350.00,0.0254
3337.00,0.0248
3324.00,0.0245
3311.00,0.0244
3298.00,0.0246
3285.00,0.0249
3272.00,0.0247
3259.00,0.0248
3246.00,0.0245
3233.00,0.0240
3220.00,0.0233
3207.00,0.0221
3194.00,0.0209
3181.00,0.0197
3168.00,0.0185
3155.00,0.0174
3142.00,0.0164
3129.00,0.0156
3116.00,0.0150
3103.00,0.0144
3090.00,0.0140
3077.00,0.0138
3064.00,0.0134
3051.00,0.0132
3038.00,0.0130
3025.00,0.0130
3012.00,0.0129
2999.00,0.0148
2986.00,0.0185
2973.00,0.0227
2960.00,0.0275
2947.00,0.0249
2934.00,0.0290
2921.00,0.0324
2908.00,0.0257
2895.00,0.0230
2882.00,0.0219
2869.00,0.0231
2856.00,0.0263
2843.00,0.0198
2830.00,0.0160
2817.00,0.0144
2804.00,0.0137
2791.00,0.0132
2778.00,0.0128
2765.00,0.0126
2752.00,0.0125
2739.00,0.0125
2726.00,0.0126
2713.00,0.0124
2700.00,0.0123
2687.00,0.0121
2674.00,0.0121
2661.00,0.0124
2648.00,0.0124
2635.00,0.0124
2622.00,0.0120
2609.00,0.0120
2596.00,0.0119
2583.00,0.0120
2570.00,0.0118
2557.00,0.0116
2544.00,0.0116
2531.00,0.0115
2518.00,0.0113
2505.00,0.0112
2492.00,0.0113
2479.00,0.0111
2466.00,0.0110
2453.00,0.0111
2440.00,0.0111
2427.00,0.0110
2414.00,0.0109
2401.00,0.0109
2388.00,0.0109
2375.00,0.0109
2362.00,0.0110
2349.00,0.0110
2336.00,0.0111
2323.00,0.0122
2310.00,0.0115
2297.00,0.0117
2284.00,0.0119
2271.00,0.0116
2258.00,0.0114
2245.00,0.0113
2232.00,0.0113
2219.00,0.0114
2206.00,0.0112
2193.00,0.0117
2180.00,0.0111
2167.00,0.0121
2154.00,0.0094
2141.00,0.0097
2128.00,0.0102
2115.00,0.0112
2102.00,0.0110
2089.00,0.0107
2076.00,0.0110
2063.00,0.0106
2050.00,0.0115
2037.00,0.0105
2024.00,0.0098
2011.00,0.0100
1998.00,0.0096
1985.00,0.0107
1972.00,0.0094
1959.00,0.0090
1946.00,0.0090
1933.00,0.0092
1920.00,0.0096
1907.00,0.0100
1894.00,0.0098
1881.00,0.0096
1868.00,0.0095
1855.00,0.0096
1842.00,0.0095
1829.00,0.0094
1816.00,0.0091
1803.00,0.0094
1790.00,0.0093
1777.00,0.0093
1764.00,0.0094
1751.00,0.0094
1738.00,0.0095
1725.00,0.0105
1712.00,0.0118
1699.00,0.0168
1686.00,0.0353
1673.00,0.0629
1660.00,0.0869
1647.00,0.0950
1634.00,0.0780
1621.00,0.0699
1608.00,0.0499
1595.00,0.0329
1582.00,0.0373
1569.00,0.0279
1556.00,0.0205
1543.00,0.0188
1530.00,0.0176
1517.00,0.0179
1504.00,0.0226
1491.00,0.0325
1478.00,0.0212
1465.00,0.0459
1452.00,0.0393
1439.00,0.0591
1426.00,0.0676
1413.00,0.0469
1400.00,0.0417
1387.00,0.0341
1374.00,0.0355
1361.00,0.0370
1348.00,0.0302
1335.00,0.0272
1322.00,0.0348
1309.00,0.0327
1296.00,0.0553
1283.00,0.0764
1270.00,0.0669
1257.00,0.0439
1244.00,0.0409
1231.00,0.0488
1218.00,0.0448
1205.00,0.0383
1192.00,0.0436
1179.00,0.0332
1166.00,0.0338
1153.00,0.0412
1140.00,0.0283
1127.00,0.0424
1114.00,0.0309
1101.00,0.0346
1088.00,0.0277
1075.00,0.0276
1062.00,0.0310
1049.00,0.0491
1036.00,0.0339
1023.00,0.0437
1010.00,0.0301
997.00,0.0326
984.00,0.0263
971.00,0.0247
958.00,0.0239
945.00,0.0228
932.00,0.0270
919.00,0.0257
906.00,0.0233
893.00,0.0262
880.00,0.0236
867.00,0.0352
854.00,0.0331
841.00,0.0350
828.00,0.0337
815.00,0.0429
802.00,0.0271
789.00,0.0271
776.00,0.0297
763.00,0.0313
750.00,0.0357
737.00,0.0449
724.00,0.0426
711.00,0.0419
698.00,0.0440
685.00,0.0471
672.00,0.0531
659.00,0.0591
646.00,0.0630
633.00,0.0595
620.00,0.0603
607.00,0.0605
594.00,0.0661
581.00,0.0712
568.00,0.0726
555.00,0.0718
542.00,0.0718
529.00,0.0720
516.00,0.0675
503.00,0.0673
490.00,0.0682
477.00,0.0671
464.00,0.0667
451.00,0.0642
438.00,0.0621
425.00,0.0585
412.00,0.0575
400.00,0.0569

File: 2025_08_01_1CBN_3PVP10_drybatchpowder_scan2.csv
Created as New Dataset,Sample 1013 By YargerLab Date Friday, August 01 2025
cm-1,A
4000.00,0.0122
3987.00,0.0122
3974.00,0.0122
3961.00,0.0121
3948.00,0.0121
3935.00,0.0121
3922.00,0.0122
3909.00,0.0121
3896.00,0.0121
3883.00,0.0121
3870.00,0.0121
3857.00,0.0121
3844.00,0.0121
3831.00,0.0120
3818.00,0.0121
3805.00,0.0120
3792.00,0.0120
3779.00,0.0120
3766.00,0.0120
3753.00,0.0120
3740.00,0.0121
3727.00,0.0119
3714.00,0.0119
3701.00,0.0118
3688.00,0.0120
3675.00,0.0125
3662.00,0.0127
3649.00,0.0135
3636.00,0.0142
3623.00,0.0153
3610.00,0.0167
3597.00,0.0181
3584.00,0.0199
3571.00,0.0219
3558.00,0.0241
3545.00,0.0263
3532.00,0.0281
3519.00,0.0297
3506.00,0.0310
3493.00,0.0324
3480.00,0.0337
3467.00,0.0354
3454.00,0.0370
3441.00,0.0387
3428.00,0.0408
3415.00,0.0431
3402.00,0.0443
3389.00,0.0434
3376.00,0.0414
3363.00,0.0393
3350.00,0.0376
3337.00,0.0365
3324.00,0.0360
3311.00,0.0359
3298.00,0.0362
3285.00,0.0367
3272.00,0.0367
3259.00,0.0370
3246.00,0.0367
3233.00,0.0361
3220.00,0.0350
3207.00,0.0332
3194.00,0.0310
3181.00,0.0290
3168.00,0.0269
3155.00,0.0249
3142.00,0.0232
3129.00,0.0219
3116.00,0.0208
3103.00,0.0197
3090.00,0.0191
3077.00,0.0187
3064.00,0.0182
3051.00,0.0181
3038.00,0.0180
3025.00,0.0179
3012.00,0.0179
2999.00,0.0216
2986.00,0.0284
2973.00,0.0367
2960.00,0.0452
2947.00,0.0396
2934.00,0.0489
2921.00,0.0546
2908.00,0.0411
2895.00,0.0356
2882.00,0.0335
2869.00,0.0360
2856.00,0.0429
2843.00,0.0297
2830.00,0.0226
2817.00,0.0197
2804.00,0.0184
2791.00,0.0175
2778.00,0.0169
2765.00,0.0165
2752.00,0.0164
2739.00,0.0165
2726.00,0.0167
2713.00,0.0163
2700.00,0.0161
2687.00,0.0158
2674.00,0.0157
2661.00,0.0161
2648.00,0.0162
2635.00,0.0159
2622.00,0.0156
2609.00,0.0154
2596.00,0.0155
2583.00,0.0154
2570.00,0.0153
2557.00,0.0150
2544.00,0.0148
2531.00,0.0148
2518.00,0.0145
2505.00,0.0143
2492.00,0.0143
2479.00,0.0141
2466.00,0.0140
2453.00,0.0142
2440.00,0.0140
2427.00,0.0140
2414.00,0.0139
2401.00,0.0139
2388.00,0.0138
2375.00,0.0138
2362.00,0.0138
2349.00,0.0139
2336.00,0.0141
2323.00,0.0153
2310.00,0.0144
2297.00,0.0146
2284.00,0.0149
2271.00,0.0144
2258.00,0.0141
2245.00,0.0142
2232.00,0.0141
2219.00,0.0142
2206.00,0.0141
2193.00,0.0143
2180.00,0.0139
2167.00,0.0153
2154.00,0.0116
2141.00,0.0125
2128.00,0.0129
2115.00,0.0139
2102.00,0.0136
2089.00,0.0135
2076.00,0.0136
2063.00,0.0131
2050.00,0.0136
2037.00,0.0130
2024.00,0.0124
2011.00,0.0122
1998.00,0.0119
1985.00,0.0131
1972.00,0.0115
1959.00,0.0111
1946.00,0.0115
1933.00,0.0117
1920.00,0.0120
1907.00,0.0128
1894.00,0.0124
1881.00,0.0121
1868.00,0.0118
1855.00,0.0122
1842.00,0.0120
1829.00,0.0118
1816.00,0.0118
1803.00,0.0120
1790.00,0.0119
1777.00,0.0123
1764.00,0.0125
1751.00,0.0126
1738.00,0.0131
1725.00,0.0152
1712.00,0.0180
1699.00,0.0279
1686.00,0.0613
1673.00,0.1077
1660.00,0.1467
1647.00,0.1565
1634.00,0.1218
1621.00,0.1137
1608.00,0.0779
1595.00,0.0474
1582.00,0.0589
1569.00,0.0407
1556.00,0.0273
1543.00,0.0243
1530.00,0.0229
1517.00,0.0244
1504.00,0.0337
1491.00,0.0502
1478.00,0.0311
1465.00,0.0744
1452.00,0.0629
1439.00,0.0972
1426.00,0.1144
1413.00,0.0757
1400.00,0.0687
1387.00,0.0540
1374.00,0.0555
1361.00,0.0598
1348.00,0.0472
1335.00,0.0414
1322.00,0.0543
1309.00,0.0514
1296.00,0.0909
1283.00,0.1284
1270.00,0.1089
1257.00,0.0674
1244.00,0.0639
1231.00,0.0786
1218.00,0.0699
1205.00,0.0576
1192.00,0.0689
1179.00,0.0480
1166.00,0.0491
1153.00,0.0646
1140.00,0.0395
1127.00,0.0680
1114.00,0.0443
1101.00,0.0522
1088.00,0.0380
1075.00,0.0380
1062.00,0.0462
1049.00,0.0816
1036.00,0.0510
1023.00,0.0692
1010.00,0.0428
997.00,0.0473
984.00,0.0352
971.00,0.0327
958.00,0.0314
945.00,0.0298
932.00,0.0375
919.00,0.0352
906.00,0.0309
893.00,0.0364
880.00,0.0320
867.00,0.0541
854.00,0.0500
841.00,0.0524
828.00,0.0493
815.00,0.0677
802.00,0.0363
789.00,0.0360
776.00,0.0410
763.00,0.0436
750.00,0.0508
737.00,0.0674
724.00,0.0619
711.00,0.0605
698.00,0.0643
685.00,0.0697
672.00,0.0806
659.00,0.0909
646.00,0.0958
633.00,0.0888
620.00,0.0910
607.00,0.0911
594.00,0.1014
581.00,0.1095
568.00,0.1110
555.00,0.1094
542.00,0.1094
529.00,0.1095
516.00,0.0993
503.00,0.0993
490.00,0.1007
477.00,0.0981
464.00,0.0969
451.00,0.0932
438.00,0.0890
425.00,0.0839
412.00,0.0827
400.00,0.0780

File: 2025_08_01_1CBN_3PVP10_drybatchpowder_scan3.csv
Created as New Dataset,Sample 1014 By YargerLab Date Friday, August 01 2025
cm-1,A
4000.00,0.0071
3987.00,0.0072
3974.00,0.0072
3961.00,0.0072
3948.00,0.0072
3935.00,0.0072
3922.00,0.0072
3909.00,0.0072
3896.00,0.0073
3883.00,0.0073
3870.00,0.0074
3857.00,0.0073
3844.00,0.0072
3831.00,0.0073
3818.00,0.0073
3805.00,0.0072
3792.00,0.0071
3779.00,0.0071
3766.00,0.0072
3753.00,0.0074
3740.00,0.0074
3727.00,0.0071
3714.00,0.0071
3701.00,0.0070
3688.00,0.0071
3675.00,0.0073
3662.00,0.0071
3649.00,0.0077
3636.00,0.0077
3623.00,0.0083
3610.00,0.0088
3597.00,0.0093
3584.00,0.0100
3571.00,0.0107
3558.00,0.0116
3545.00,0.0126
3532.00,0.0135
3519.00,0.0143
3506.00,0.0150
3493.00,0.0158
3480.00,0.0169
3467.00,0.0182
3454.00,0.0197
3441.00,0.0214
3428.00,0.0236
3415.00,0.0263
3402.00,0.0278
3389.00,0.0271
3376.00,0.0254
3363.00,0.0238
3350.00,0.0226
3337.00,0.0220
3324.00,0.0219
3311.00,0.0222
3298.00,0.0229
3285.00,0.0237
3272.00,0.0244
3259.00,0.0252
3246.00,0.0257
3233.00,0.0256
3220.00,0.0249
3207.00,0.0236
3194.00,0.0218
3181.00,0.0201
3168.00,0.0182
3155.00,0.0165
3142.00,0.0150
3129.00,0.0139
3116.00,0.0131
3103.00,0.0121
3090.00,0.0118
3077.00,0.0117
3064.00,0.0113
3051.00,0.0114
3038.00,0.0114
3025.00,0.0112
3012.00,0.0109
2999.00,0.0135
2986.00,0.0185
2973.00,0.0253
2960.00,0.0319
2947.00,0.0263
2934.00,0.0378
2921.00,0.0409
2908.00,0.0279
2895.00,0.0224
2882.00,0.0205
2869.00,0.0241
2856.00,0.0317
2843.00,0.0193
2830.00,0.0136
2817.00,0.0116
2804.00,0.0107
2791.00,0.0101
2778.00,0.0097
2765.00,0.0094
2752.00,0.0095
2739.00,0.0097
2726.00,0.0099
2713.00,0.0095
2700.00,0.0094
2687.00,0.0092
2674.00,0.0091
2661.00,0.0095
2648.00,0.0097
2635.00,0.0095
2622.00,0.0091
2609.00,0.0090
2596.00,0.0090
2583.00,0.0091
2570.00,0.0089
2557.00,0.0086
2544.00,0.0085
2531.00,0.0085
2518.00,0.0082
2505.00,0.0080
2492.00,0.0080
2479.00,0.0078
2466.00,0.0077
2453.00,0.0079
2440.00,0.0077
2427.00,0.0076
2414.00,0.0075
2401.00,0.0075
2388.00,0.0074
2375.00,0.0073
2362.00,0.0073
2349.00,0.0072
2336.00,0.0075
2323.00,0.0085
2310.00,0.0076
2297.00,0.0079
2284.00,0.0083
2271.00,0.0078
2258.00,0.0075
2245.00,0.0077
2232.00,0.0075
2219.00,0.0078
2206.00,0.0074
2193.00,0.0077
2180.00,0.0074
2167.00,0.0085
2154.00,0.0051
2141.00,0.0057
2128.00,0.0062
2115.00,0.0071
2102.00,0.0070
2089.00,0.0068
2076.00,0.0073
2063.00,0.0068
2050.00,0.0076
2037.00,0.0070
2024.00,0.0059
2011.00,0.0062
1998.00,0.0059
1985.00,0.0072
1972.00,0.0059
1959.00,0.0053
1946.00,0.0056
1933.00,0.0058
1920.00,0.0063
1907.00,0.0070
1894.00,0.0067
1881.00,0.0062
1868.00,0.0064
1855.00,0.0064
1842.00,0.0066
1829.00,0.0063
1816.00,0.0061
1803.00,0.0065
1790.00,0.0066
1777.00,0.0067
1764.00,0.0068
1751.00,0.0066
1738.00,0.0068
1725.00,0.0079
1712.00,0.0096
1699.00,0.0144
1686.00,0.0282
1673.00,0.0467
1660.00,0.0606
1647.00,0.0617
1634.00,0.0504
1621.00,0.0662
1608.00,0.0455
1595.00,0.0261
1582.00,0.0424
1569.00,0.0264
1556.00,0.0155
1543.00,0.0138
1530.00,0.0127
1517.00,0.0147
1504.00,0.0195
1491.00,0.0283
1478.00,0.0172
1465.00,0.0403
1452.00,0.0350
1439.00,0.0517
1426.00,0.0605
1413.00,0.0422
1400.00,0.0507
1387.00,0.0361
1374.00,0.0322
1361.00,0.0410
1348.00,0.0310
1335.00,0.0250
1322.00,0.0295
1309.00,0.0285
1296.00,0.0481
1283.00,0.0626
1270.00,0.0484
1257.00,0.0317
1244.00,0.0360
1231.00,0.0453
1218.00,0.0379
1205.00,0.0311
1192.00,0.0440
1179.00,0.0252
1166.00,0.0253
1153.00,0.0443
1140.00,0.0221
1127.00,0.0494
1114.00,0.0263
1101.00,0.0336
1088.00,0.0203
1075.00,0.0204
1062.00,0.0304
1049.00,0.0634
1036.00,0.0334
1023.00,0.0461
1010.00,0.0245
997.00,0.0282
984.00,0.0196
971.00,0.0183
958.00,0.0172
945.00,0.0161
932.00,0.0210
919.00,0.0203
906.00,0.0166
893.00,0.0205
880.00,0.0182
867.00,0.0369
854.00,0.0302
841.00,0.0295
828.00,0.0291
815.00,0.0452
802.00,0.0188
789.00,0.0181
776.00,0.0214
763.00,0.0216
750.00,0.0244
737.00,0.0353
724.00,0.0311
711.00,0.0305
698.00,0.0328
685.00,0.0351
672.00,0.0408
659.00,0.0442
646.00,0.0438
633.00,0.0410
620.00,0.0436
607.00,0.0434
594.00,0.0496
581.00,0.0521
568.00,0.0513
555.00,0.0517
542.00,0.0528
529.00,0.0529
516.00,0.0460
503.00,0.0464
490.00,0.0470
477.00,0.0452
464.00,0.0443
451.00,0.0439
438.00,0.0414
425.00,0.0396
412.00,0.0388
400.00,0.0382