Folder: Data/FTIR/Olivia (part 10)

File: 2025_07_28_Polystyrene_Std_scan2.csv
Created as New Dataset,Sample 933 By YargerLab Date Monday, July 28 2025
cm-1,A
4000.00,0.0033
3987.00,0.0032
3974.00,0.0032
3961.00,0.0032
3948.00,0.0031
3935.00,0.0031
3922.00,0.0031
3909.00,0.0031
3896.00,0.0030
3883.00,0.0030
3870.00,0.0029
3857.00,0.0030
3844.00,0.0030
3831.00,0.0029
3818.00,0.0029
3805.00,0.0030
3792.00,0.0031
3779.00,0.0031
3766.00,0.0030
3753.00,0.0028
3740.00,0.0028
3727.00,0.0028
3714.00,0.0029
3701.00,0.0031
3688.00,0.0027
3675.00,0.0028
3662.00,0.0029
3649.00,0.0029
3636.00,0.0031
3623.00,0.0031
3610.00,0.0030
3597.00,0.0032
3584.00,0.0032
3571.00,0.0034
3558.00,0.0036
3545.00,0.0037
3532.00,0.0038
3519.00,0.0038
3506.00,0.0038
3493.00,0.0038
3480.00,0.0040
3467.00,0.0040
3454.00,0.0040
3441.00,0.0041
3428.00,0.0041
3415.00,0.0041
3402.00,0.0041
3389.00,0.0040
3376.00,0.0040
3363.00,0.0039
3350.00,0.0039
3337.00,0.0038
3324.00,0.0037
3311.00,0.0037
3298.00,0.0037
3285.00,0.0038
3272.00,0.0036
3259.00,0.0036
3246.00,0.0035
3233.00,0.0033
3220.00,0.0034
3207.00,0.0035
3194.00,0.0034
3181.00,0.0033
3168.00,0.0035
3155.00,0.0033
3142.00,0.0032
3129.00,0.0033
3116.00,0.0037
3103.00,0.0060
3090.00,0.0081
3077.00,0.0104
3064.00,0.0150
3051.00,0.0110
3038.00,0.0125
3025.00,0.0311
3012.00,0.0098
2999.00,0.0089
2986.00,0.0050
2973.00,0.0052
2960.00,0.0077
2947.00,0.0138
2934.00,0.0273
2921.00,0.0372
2908.00,0.0289
2895.00,0.0177
2882.00,0.0128
2869.00,0.0106
2856.00,0.0152
2843.00,0.0145
2830.00,0.0064
2817.00,0.0053
2804.00,0.0049
2791.00,0.0044
2778.00,0.0044
2765.00,0.0041
2752.00,0.0040
2739.00,0.0040
2726.00,0.0040
2713.00,0.0039
2700.00,0.0039
2687.00,0.0039
2674.00,0.0039
2661.00,0.0042
2648.00,0.0044
2635.00,0.0045
2622.00,0.0042
2609.00,0.0041
2596.00,0.0039
2583.00,0.0038
2570.00,0.0036
2557.00,0.0035
2544.00,0.0034
2531.00,0.0034
2518.00,0.0033
2505.00,0.0033
2492.00,0.0032
2479.00,0.0031
2466.00,0.0030
2453.00,0.0032
2440.00,0.0029
2427.00,0.0027
2414.00,0.0027
2401.00,0.0025
2388.00,0.0025
2375.00,0.0025
2362.00,0.0027
2349.00,0.0031
2336.00,0.0035
2323.00,0.0046
2310.00,0.0038
2297.00,0.0036
2284.00,0.0038
2271.00,0.0033
2258.00,0.0031
2245.00,0.0030
2232.00,0.0028
2219.00,0.0027
2206.00,0.0026
2193.00,0.0027
2180.00,0.0023
2167.00,0.0033
2154.00,-0.0004
2141.00,0.0004
2128.00,0.0008
2115.00,0.0022
2102.00,0.0021
2089.00,0.0020
2076.00,0.0022
2063.00,0.0017
2050.00,0.0026
2037.00,0.0022
2024.00,0.0010
2011.00,0.0014
1998.00,0.0015
1985.00,0.0032
1972.00,0.0013
1959.00,0.0026
1946.00,0.0049
1933.00,0.0034
1920.00,0.0021
1907.00,0.0022
1894.00,0.0031
1881.00,0.0043
1868.00,0.0051
1855.00,0.0030
1842.00,0.0022
1829.00,0.0028
1816.00,0.0039
1803.00,0.0059
1790.00,0.0039
1777.00,0.0035
1764.00,0.0039
1751.00,0.0060
1738.00,0.0073
1725.00,0.0062
1712.00,0.0053
1699.00,0.0048
1686.00,0.0049
1673.00,0.0054
1660.00,0.0049
1647.00,0.0045
1634.00,0.0045
1621.00,0.0050
1608.00,0.0134
1595.00,0.0162
1582.00,0.0131
1569.00,0.0050
1556.00,0.0048
1543.00,0.0061
1530.00,0.0046
1517.00,0.0044
1504.00,0.0075
1491.00,0.0645
1478.00,0.0098
1465.00,0.0099
1452.00,0.0751
1439.00,0.0279
1426.00,0.0101
1413.00,0.0079
1400.00,0.0072
1387.00,0.0112
1374.00,0.0168
1361.00,0.0158
1348.00,0.0143
1335.00,0.0130
1322.00,0.0136
1309.00,0.0136
1296.00,0.0112
1283.00,0.0103
1270.00,0.0086
1257.00,0.0079
1244.00,0.0083
1231.00,0.0081
1218.00,0.0084
1205.00,0.0104
1192.00,0.0127
1179.00,0.0163
1166.00,0.0114
1153.00,0.0169
1140.00,0.0089
1127.00,0.0085
1114.00,0.0112
1101.00,0.0111
1088.00,0.0128
1075.00,0.0191
1062.00,0.0187
1049.00,0.0137
1036.00,0.0186
1023.00,0.0286
1010.00,0.0164
997.00,0.0129
984.00,0.0142
971.00,0.0135
958.00,0.0126
945.00,0.0120
932.00,0.0092
919.00,0.0108
906.00,0.0251
893.00,0.0095
880.00,0.0073
867.00,0.0064
854.00,0.0069
841.00,0.0130
828.00,0.0062
815.00,0.0061
802.00,0.0071
789.00,0.0129
776.00,0.0317
763.00,0.0827
750.00,0.1080
737.00,0.0460
724.00,0.0129
711.00,0.0292
698.00,0.2741
685.00,0.1004
672.00,0.0456
659.00,0.0277
646.00,0.0182
633.00,0.0197
620.00,0.0239
607.00,0.0188
594.00,0.0208
581.00,0.0264
568.00,0.0429
555.00,0.0617
542.00,0.0969
529.00,0.0688
516.00,0.0344
503.00,0.0234
490.00,0.0183
477.00,0.0159
464.00,0.0154
451.00,0.0144
438.00,0.0129
425.00,0.0126
412.00,0.0114
400.00,0.0094

File: 2025_07_28_Polystyrene_Std_scan3.csv
Created as New Dataset,Sample 934 By YargerLab Date Monday, July 28 2025
cm-1,A
4000.00,0.0019
3987.00,0.0018
3974.00,0.0019
3961.00,0.0018
3948.00,0.0017
3935.00,0.0018
3922.00,0.0018
3909.00,0.0018
3896.00,0.0017
3883.00,0.0016
3870.00,0.0016
3857.00,0.0018
3844.00,0.0016
3831.00,0.0016
3818.00,0.0017
3805.00,0.0017
3792.00,0.0018
3779.00,0.0017
3766.00,0.0017
3753.00,0.0016
3740.00,0.0014
3727.00,0.0015
3714.00,0.0015
3701.00,0.0016
3688.00,0.0014
3675.00,0.0015
3662.00,0.0015
3649.00,0.0014
3636.00,0.0015
3623.00,0.0015
3610.00,0.0013
3597.00,0.0015
3584.00,0.0015
3571.00,0.0015
3558.00,0.0017
3545.00,0.0017
3532.00,0.0018
3519.00,0.0019
3506.00,0.0020
3493.00,0.0020
3480.00,0.0021
3467.00,0.0021
3454.00,0.0022
3441.00,0.0022
3428.00,0.0021
3415.00,0.0021
3402.00,0.0020
3389.00,0.0020
3376.00,0.0020
3363.00,0.0019
3350.00,0.0019
3337.00,0.0019
3324.00,0.0018
3311.00,0.0018
3298.00,0.0018
3285.00,0.0018
3272.00,0.0017
3259.00,0.0017
3246.00,0.0016
3233.00,0.0016
3220.00,0.0016
3207.00,0.0017
3194.00,0.0017
3181.00,0.0016
3168.00,0.0018
3155.00,0.0017
3142.00,0.0016
3129.00,0.0017
3116.00,0.0023
3103.00,0.0048
3090.00,0.0071
3077.00,0.0097
3064.00,0.0148
3051.00,0.0104
3038.00,0.0120
3025.00,0.0325
3012.00,0.0088
2999.00,0.0079
2986.00,0.0036
2973.00,0.0036
2960.00,0.0060
2947.00,0.0129
2934.00,0.0272
2921.00,0.0375
2908.00,0.0287
2895.00,0.0167
2882.00,0.0115
2869.00,0.0091
2856.00,0.0138
2843.00,0.0133
2830.00,0.0048
2817.00,0.0037
2804.00,0.0034
2791.00,0.0030
2778.00,0.0029
2765.00,0.0026
2752.00,0.0026
2739.00,0.0025
2726.00,0.0025
2713.00,0.0025
2700.00,0.0025
2687.00,0.0025
2674.00,0.0025
2661.00,0.0029
2648.00,0.0030
2635.00,0.0032
2622.00,0.0029
2609.00,0.0028
2596.00,0.0026
2583.00,0.0025
2570.00,0.0023
2557.00,0.0021
2544.00,0.0021
2531.00,0.0021
2518.00,0.0020
2505.00,0.0019
2492.00,0.0019
2479.00,0.0018
2466.00,0.0018
2453.00,0.0019
2440.00,0.0017
2427.00,0.0014
2414.00,0.0014
2401.00,0.0012
2388.00,0.0011
2375.00,0.0012
2362.00,0.0014
2349.00,0.0017
2336.00,0.0022
2323.00,0.0032
2310.00,0.0025
2297.00,0.0023
2284.00,0.0026
2271.00,0.0020
2258.00,0.0019
2245.00,0.0016
2232.00,0.0016
2219.00,0.0014
2206.00,0.0013
2193.00,0.0017
2180.00,0.0011
2167.00,0.0020
2154.00,-0.0018
2141.00,-0.0010
2128.00,-0.0004
2115.00,0.0009
2102.00,0.0009
2089.00,0.0008
2076.00,0.0011
2063.00,0.0006
2050.00,0.0014
2037.00,0.0009
2024.00,0.0001
2011.00,0.0003
1998.00,0.0001
1985.00,0.0019
1972.00,0.0003
1959.00,0.0017
1946.00,0.0040
1933.00,0.0024
1920.00,0.0010
1907.00,0.0010
1894.00,0.0021
1881.00,0.0034
1868.00,0.0042
1855.00,0.0019
1842.00,0.0011
1829.00,0.0017
1816.00,0.0029
1803.00,0.0049
1790.00,0.0028
1777.00,0.0023
1764.00,0.0027
1751.00,0.0049
1738.00,0.0061
1725.00,0.0049
1712.00,0.0038
1699.00,0.0032
1686.00,0.0031
1673.00,0.0034
1660.00,0.0026
1647.00,0.0021
1634.00,0.0023
1621.00,0.0027
1608.00,0.0118
1595.00,0.0148
1582.00,0.0114
1569.00,0.0030
1556.00,0.0029
1543.00,0.0044
1530.00,0.0030
1517.00,0.0028
1504.00,0.0060
1491.00,0.0662
1478.00,0.0079
1465.00,0.0076
1452.00,0.0764
1439.00,0.0262
1426.00,0.0073
1413.00,0.0053
1400.00,0.0048
1387.00,0.0094
1374.00,0.0153
1361.00,0.0143
1348.00,0.0129
1335.00,0.0117
1322.00,0.0123
1309.00,0.0125
1296.00,0.0098
1283.00,0.0088
1270.00,0.0069
1257.00,0.0062
1244.00,0.0067
1231.00,0.0064
1218.00,0.0067
1205.00,0.0087
1192.00,0.0108
1179.00,0.0140
1166.00,0.0082
1153.00,0.0140
1140.00,0.0057
1127.00,0.0051
1114.00,0.0075
1101.00,0.0075
1088.00,0.0094
1075.00,0.0161
1062.00,0.0153
1049.00,0.0101
1036.00,0.0152
1023.00,0.0256
1010.00,0.0134
997.00,0.0105
984.00,0.0123
971.00,0.0119
958.00,0.0112
945.00,0.0108
932.00,0.0079
919.00,0.0095
906.00,0.0241
893.00,0.0083
880.00,0.0058
867.00,0.0050
854.00,0.0057
841.00,0.0117
828.00,0.0048
815.00,0.0045
802.00,0.0054
789.00,0.0114
776.00,0.0307
763.00,0.0816
750.00,0.1060
737.00,0.0439
724.00,0.0115
711.00,0.0279
698.00,0.2613
685.00,0.0936
672.00,0.0414
659.00,0.0242
646.00,0.0156
633.00,0.0173
620.00,0.0211
607.00,0.0161
594.00,0.0180
581.00,0.0236
568.00,0.0402
555.00,0.0581
542.00,0.0916
529.00,0.0633
516.00,0.0308
503.00,0.0201
490.00,0.0151
477.00,0.0127
464.00,0.0118
451.00,0.0114
438.00,0.0099
425.00,0.0100
412.00,0.0090
400.00,0.0043

File: 2025_07_29_CBN_PVP90kDa_MC_1to3_Powder_scan1.csv
Created as New Dataset,Sample 954 By YargerLab Date Tuesday, July 29 2025
cm-1,A
4000.00,0.0059
3987.00,0.0058
3974.00,0.0059
3961.00,0.0059
3948.00,0.0058
3935.00,0.0058
3922.00,0.0058
3909.00,0.0059
3896.00,0.0058
3883.00,0.0058
3870.00,0.0057
3857.00,0.0058
3844.00,0.0057
3831.00,0.0057
3818.00,0.0057
3805.00,0.0057
3792.00,0.0057
3779.00,0.0056
3766.00,0.0057
3753.00,0.0057
3740.00,0.0057
3727.00,0.0056
3714.00,0.0055
3701.00,0.0054
3688.00,0.0055
3675.00,0.0054
3662.00,0.0055
3649.00,0.0054
3636.00,0.0055
3623.00,0.0056
3610.00,0.0058
3597.00,0.0059
3584.00,0.0061
3571.00,0.0064
3558.00,0.0067
3545.00,0.0072
3532.00,0.0078
3519.00,0.0084
3506.00,0.0089
3493.00,0.0096
3480.00,0.0108
3467.00,0.0122
3454.00,0.0140
3441.00,0.0160
3428.00,0.0187
3415.00,0.0220
3402.00,0.0242
3389.00,0.0238
3376.00,0.0219
3363.00,0.0203
3350.00,0.0190
3337.00,0.0184
3324.00,0.0184
3311.00,0.0189
3298.00,0.0198
3285.00,0.0210
3272.00,0.0223
3259.00,0.0236
3246.00,0.0248
3233.00,0.0253
3220.00,0.0254
3207.00,0.0244
3194.00,0.0227
3181.00,0.0209
3168.00,0.0191
3155.00,0.0169
3142.00,0.0152
3129.00,0.0138
3116.00,0.0127
3103.00,0.0116
3090.00,0.0113
3077.00,0.0112
3064.00,0.0108
3051.00,0.0110
3038.00,0.0112
3025.00,0.0110
3012.00,0.0101
2999.00,0.0128
2986.00,0.0179
2973.00,0.0266
2960.00,0.0347
2947.00,0.0267
2934.00,0.0424
2921.00,0.0501
2908.00,0.0331
2895.00,0.0248
2882.00,0.0216
2869.00,0.0267
2856.00,0.0396
2843.00,0.0242
2830.00,0.0155
2817.00,0.0128
2804.00,0.0116
2791.00,0.0106
2778.00,0.0100
2765.00,0.0097
2752.00,0.0097
2739.00,0.0100
2726.00,0.0104
2713.00,0.0099
2700.00,0.0097
2687.00,0.0094
2674.00,0.0093
2661.00,0.0099
2648.00,0.0100
2635.00,0.0097
2622.00,0.0092
2609.00,0.0091
2596.00,0.0092
2583.00,0.0093
2570.00,0.0091
2557.00,0.0087
2544.00,0.0086
2531.00,0.0086
2518.00,0.0083
2505.00,0.0080
2492.00,0.0078
2479.00,0.0077
2466.00,0.0075
2453.00,0.0077
2440.00,0.0074
2427.00,0.0073
2414.00,0.0072
2401.00,0.0071
2388.00,0.0070
2375.00,0.0068
2362.00,0.0068
2349.00,0.0068
2336.00,0.0070
2323.00,0.0079
2310.00,0.0070
2297.00,0.0074
2284.00,0.0079
2271.00,0.0073
2258.00,0.0069
2245.00,0.0067
2232.00,0.0070
2219.00,0.0067
2206.00,0.0068
2193.00,0.0066
2180.00,0.0062
2167.00,0.0074
2154.00,0.0042
2141.00,0.0049
2128.00,0.0051
2115.00,0.0059
2102.00,0.0058
2089.00,0.0058
2076.00,0.0061
2063.00,0.0057
2050.00,0.0059
2037.00,0.0057
2024.00,0.0053
2011.00,0.0049
1998.00,0.0050
1985.00,0.0059
1972.00,0.0045
1959.00,0.0045
1946.00,0.0050
1933.00,0.0052
1920.00,0.0055
1907.00,0.0072
1894.00,0.0065
1881.00,0.0059
1868.00,0.0056
1855.00,0.0059
1842.00,0.0060
1829.00,0.0057
1816.00,0.0057
1803.00,0.0059
1790.00,0.0060
1777.00,0.0064
1764.00,0.0063
1751.00,0.0063
1738.00,0.0063
1725.00,0.0074
1712.00,0.0083
1699.00,0.0099
1686.00,0.0157
1673.00,0.0200
1660.00,0.0234
1647.00,0.0226
1634.00,0.0238
1621.00,0.0684
1608.00,0.0516
1595.00,0.0266
1582.00,0.0561
1569.00,0.0344
1556.00,0.0161
1543.00,0.0135
1530.00,0.0120
1517.00,0.0151
1504.00,0.0198
1491.00,0.0300
1478.00,0.0164
1465.00,0.0405
1452.00,0.0354
1439.00,0.0493
1426.00,0.0606
1413.00,0.0436
1400.00,0.0690
1387.00,0.0479
1374.00,0.0373
1361.00,0.0549
1348.00,0.0438
1335.00,0.0321
1322.00,0.0323
1309.00,0.0303
1296.00,0.0501
1283.00,0.0580
1270.00,0.0340
1257.00,0.0248
1244.00,0.0384
1231.00,0.0546
1218.00,0.0392
1205.00,0.0314
1192.00,0.0589
1179.00,0.0252
1166.00,0.0225
1153.00,0.0581
1140.00,0.0232
1127.00,0.0716
1114.00,0.0335
1101.00,0.0455
1088.00,0.0214
1075.00,0.0200
1062.00,0.0360
1049.00,0.0954
1036.00,0.0489
1023.00,0.0734
1010.00,0.0318
997.00,0.0397
984.00,0.0238
971.00,0.0217
958.00,0.0202
945.00,0.0175
932.00,0.0246
919.00,0.0254
906.00,0.0166
893.00,0.0239
880.00,0.0203
867.00,0.0595
854.00,0.0414
841.00,0.0380
828.00,0.0418
815.00,0.0806
802.00,0.0203
789.00,0.0169
776.00,0.0229
763.00,0.0201
750.00,0.0203
737.00,0.0391
724.00,0.0344
711.00,0.0341
698.00,0.0371
685.00,0.0382
672.00,0.0475
659.00,0.0463
646.00,0.0362
633.00,0.0340
620.00,0.0442
607.00,0.0429
594.00,0.0567
581.00,0.0521
568.00,0.0459
555.00,0.0530
542.00,0.0583
529.00,0.0584
516.00,0.0378
503.00,0.0383
490.00,0.0382
477.00,0.0306
464.00,0.0294
451.00,0.0282
438.00,0.0279
425.00,0.0244
412.00,0.0297
400.00,0.0262

File: 2025_07_29_CBN_PVP90kDa_MC_1to3_Powder_scan2.csv
Created as New Dataset,Sample 955 By YargerLab Date Tuesday, July 29 2025
cm-1,A
4000.00,0.0075
3987.00,0.0075
3974.00,0.0076
3961.00,0.0075
3948.00,0.0076
3935.00,0.0074
3922.00,0.0075
3909.00,0.0075
3896.00,0.0074
3883.00,0.0074
3870.00,0.0073
3857.00,0.0074
3844.00,0.0072
3831.00,0.0072
3818.00,0.0072
3805.00,0.0071
3792.00,0.0073
3779.00,0.0072
3766.00,0.0073
3753.00,0.0071
3740.00,0.0071
3727.00,0.0071
3714.00,0.0070
3701.00,0.0069
3688.00,0.0069
3675.00,0.0067
3662.00,0.0069
3649.00,0.0067
3636.00,0.0069
3623.00,0.0069
3610.00,0.0071
3597.00,0.0071
3584.00,0.0073
3571.00,0.0074
3558.00,0.0077
3545.00,0.0082
3532.00,0.0087
3519.00,0.0093
3506.00,0.0100
3493.00,0.0109
3480.00,0.0124
3467.00,0.0143
3454.00,0.0166
3441.00,0.0193
3428.00,0.0230
3415.00,0.0273
3402.00,0.0301
3389.00,0.0296
3376.00,0.0272
3363.00,0.0249
3350.00,0.0233
3337.00,0.0226
3324.00,0.0227
3311.00,0.0234
3298.00,0.0248
3285.00,0.0264
3272.00,0.0282
3259.00,0.0300
3246.00,0.0317
3233.00,0.0324
3220.00,0.0325
3207.00,0.0312
3194.00,0.0291
3181.00,0.0267
3168.00,0.0243
3155.00,0.0215
3142.00,0.0192
3129.00,0.0175
3116.00,0.0161
3103.00,0.0145
3090.00,0.0143
3077.00,0.0141
3064.00,0.0137
3051.00,0.0138
3038.00,0.0141
3025.00,0.0137
3012.00,0.0125
2999.00,0.0159
2986.00,0.0220
2973.00,0.0334
2960.00,0.0438
2947.00,0.0329
2934.00,0.0539
2921.00,0.0641
2908.00,0.0419
2895.00,0.0310
2882.00,0.0267
2869.00,0.0335
2856.00,0.0511
2843.00,0.0308
2830.00,0.0196
2817.00,0.0162
2804.00,0.0147
2791.00,0.0136
2778.00,0.0127
2765.00,0.0123
2752.00,0.0124
2739.00,0.0127
2726.00,0.0133
2713.00,0.0126
2700.00,0.0123
2687.00,0.0119
2674.00,0.0118
2661.00,0.0124
2648.00,0.0125
2635.00,0.0121
2622.00,0.0115
2609.00,0.0114
2596.00,0.0116
2583.00,0.0117
2570.00,0.0114
2557.00,0.0110
2544.00,0.0108
2531.00,0.0108
2518.00,0.0105
2505.00,0.0100
2492.00,0.0098
2479.00,0.0097
2466.00,0.0095
2453.00,0.0096
2440.00,0.0094
2427.00,0.0092
2414.00,0.0091
2401.00,0.0090
2388.00,0.0089
2375.00,0.0083
2362.00,0.0085
2349.00,0.0085
2336.00,0.0088
2323.00,0.0095
2310.00,0.0086
2297.00,0.0091
2284.00,0.0096
2271.00,0.0089
2258.00,0.0083
2245.00,0.0082
2232.00,0.0085
2219.00,0.0083
2206.00,0.0082
2193.00,0.0082
2180.00,0.0078
2167.00,0.0090
2154.00,0.0055
2141.00,0.0064
2128.00,0.0065
2115.00,0.0072
2102.00,0.0072
2089.00,0.0069
2076.00,0.0074
2063.00,0.0071
2050.00,0.0071
2037.00,0.0068
2024.00,0.0065
2011.00,0.0062
1998.00,0.0064
1985.00,0.0072
1972.00,0.0062
1959.00,0.0058
1946.00,0.0063
1933.00,0.0066
1920.00,0.0070
1907.00,0.0092
1894.00,0.0082
1881.00,0.0072
1868.00,0.0072
1855.00,0.0074
1842.00,0.0077
1829.00,0.0071
1816.00,0.0070
1803.00,0.0073
1790.00,0.0076
1777.00,0.0078
1764.00,0.0078
1751.00,0.0076
1738.00,0.0076
1725.00,0.0087
1712.00,0.0097
1699.00,0.0107
1686.00,0.0142
1673.00,0.0168
1660.00,0.0193
1647.00,0.0187
1634.00,0.0237
1621.00,0.0844
1608.00,0.0639
1595.00,0.0322
1582.00,0.0712
1569.00,0.0437
1556.00,0.0207
1543.00,0.0168
1530.00,0.0148
1517.00,0.0191
1504.00,0.0248
1491.00,0.0364
1478.00,0.0196
1465.00,0.0488
1452.00,0.0425
1439.00,0.0588
1426.00,0.0718
1413.00,0.0513
1400.00,0.0878
1387.00,0.0604
1374.00,0.0453
1361.00,0.0698
1348.00,0.0555
1335.00,0.0400
1322.00,0.0391
1309.00,0.0364
1296.00,0.0604
1283.00,0.0670
1270.00,0.0354
1257.00,0.0266
1244.00,0.0461
1231.00,0.0666
1218.00,0.0468
1205.00,0.0372
1192.00,0.0743
1179.00,0.0298
1166.00,0.0260
1153.00,0.0728
1140.00,0.0281
1127.00,0.0917
1114.00,0.0414
1101.00,0.0573
1088.00,0.0256
1075.00,0.0237
1062.00,0.0445
1049.00,0.1233
1036.00,0.0617
1023.00,0.0938
1010.00,0.0393
997.00,0.0498
984.00,0.0291
971.00,0.0266
958.00,0.0247
945.00,0.0214
932.00,0.0299
919.00,0.0313
906.00,0.0200
893.00,0.0292
880.00,0.0247
867.00,0.0755
854.00,0.0513
841.00,0.0460
828.00,0.0518
815.00,0.1037
802.00,0.0249
789.00,0.0204
776.00,0.0279
763.00,0.0240
750.00,0.0234
737.00,0.0473
724.00,0.0415
711.00,0.0416
698.00,0.0451
685.00,0.0459
672.00,0.0576
659.00,0.0545
646.00,0.0404
633.00,0.0380
620.00,0.0519
607.00,0.0499
594.00,0.0678
581.00,0.0601
568.00,0.0515
555.00,0.0612
542.00,0.0686
529.00,0.0696
516.00,0.0417
503.00,0.0428
490.00,0.0422
477.00,0.0330
464.00,0.0309
451.00,0.0290
438.00,0.0300
425.00,0.0257
412.00,0.0313
400.00,0.0258

File: 2025_07_29_CBN_PVP90kDa_MC_1to3_Powder_scan3.csv
Created as New Dataset,Sample 956 By YargerLab Date Tuesday, July 29 2025
cm-1,A
4000.00,0.0066
3987.00,0.0066
3974.00,0.0066
3961.00,0.0066
3948.00,0.0065
3935.00,0.0065
3922.00,0.0066
3909.00,0.0065
3896.00,0.0065
3883.00,0.0064
3870.00,0.0064
3857.00,0.0065
3844.00,0.0063
3831.00,0.0062
3818.00,0.0062
3805.00,0.0062
3792.00,0.0062
3779.00,0.0063
3766.00,0.0062
3753.00,0.0062
3740.00,0.0061
3727.00,0.0060
3714.00,0.0060
3701.00,0.0059
3688.00,0.0058
3675.00,0.0058
3662.00,0.0059
3649.00,0.0058
3636.00,0.0059
3623.00,0.0059
3610.00,0.0061
3597.00,0.0063
3584.00,0.0065
3571.00,0.0067
3558.00,0.0073
3545.00,0.0079
3532.00,0.0088
3519.00,0.0097
3506.00,0.0105
3493.00,0.0117
3480.00,0.0135
3467.00,0.0157
3454.00,0.0185
3441.00,0.0218
3428.00,0.0262
3415.00,0.0315
3402.00,0.0350
3389.00,0.0342
3376.00,0.0312
3363.00,0.0284
3350.00,0.0266
3337.00,0.0256
3324.00,0.0257
3311.00,0.0266
3298.00,0.0280
3285.00,0.0298
3272.00,0.0319
3259.00,0.0341
3246.00,0.0361
3233.00,0.0369
3220.00,0.0369
3207.00,0.0352
3194.00,0.0326
3181.00,0.0297
3168.00,0.0267
3155.00,0.0233
3142.00,0.0207
3129.00,0.0186
3116.00,0.0169
3103.00,0.0151
3090.00,0.0149
3077.00,0.0147
3064.00,0.0141
3051.00,0.0144
3038.00,0.0149
3025.00,0.0144
3012.00,0.0130
2999.00,0.0173
2986.00,0.0254
2973.00,0.0391
2960.00,0.0519
2947.00,0.0390
2934.00,0.0652
2921.00,0.0769
2908.00,0.0489
2895.00,0.0356
2882.00,0.0303
2869.00,0.0390
2856.00,0.0604
2843.00,0.0344
2830.00,0.0208
2817.00,0.0167
2804.00,0.0149
2791.00,0.0135
2778.00,0.0125
2765.00,0.0120
2752.00,0.0121
2739.00,0.0126
2726.00,0.0132
2713.00,0.0124
2700.00,0.0121
2687.00,0.0116
2674.00,0.0114
2661.00,0.0121
2648.00,0.0123
2635.00,0.0118
2622.00,0.0110
2609.00,0.0109
2596.00,0.0112
2583.00,0.0114
2570.00,0.0110
2557.00,0.0104
2544.00,0.0103
2531.00,0.0103
2518.00,0.0098
2505.00,0.0095
2492.00,0.0091
2479.00,0.0090
2466.00,0.0087
2453.00,0.0089
2440.00,0.0086
2427.00,0.0084
2414.00,0.0082
2401.00,0.0081
2388.00,0.0080
2375.00,0.0076
2362.00,0.0076
2349.00,0.0077
2336.00,0.0078
2323.00,0.0087
2310.00,0.0077
2297.00,0.0082
2284.00,0.0088
2271.00,0.0079
2258.00,0.0072
2245.00,0.0072
2232.00,0.0075
2219.00,0.0072
2206.00,0.0073
2193.00,0.0070
2180.00,0.0068
2167.00,0.0079
2154.00,0.0044
2141.00,0.0050
2128.00,0.0053
2115.00,0.0061
2102.00,0.0058
2089.00,0.0058
2076.00,0.0062
2063.00,0.0058
2050.00,0.0057
2037.00,0.0060
2024.00,0.0052
2011.00,0.0049
1998.00,0.0050
1985.00,0.0058
1972.00,0.0045
1959.00,0.0047
1946.00,0.0053
1933.00,0.0055
1920.00,0.0060
1907.00,0.0086
1894.00,0.0074
1881.00,0.0061
1868.00,0.0062
1855.00,0.0064
1842.00,0.0068
1829.00,0.0061
1816.00,0.0060
1803.00,0.0064
1790.00,0.0068
1777.00,0.0071
1764.00,0.0070
1751.00,0.0069
1738.00,0.0068
1725.00,0.0081
1712.00,0.0094
1699.00,0.0107
1686.00,0.0146
1673.00,0.0184
1660.00,0.0224
1647.00,0.0221
1634.00,0.0286
1621.00,0.1029
1608.00,0.0764
1595.00,0.0371
1582.00,0.0858
1569.00,0.0510
1556.00,0.0227
1543.00,0.0180
1530.00,0.0156
1517.00,0.0212
1504.00,0.0285
1491.00,0.0419
1478.00,0.0219
1465.00,0.0576
1452.00,0.0505
1439.00,0.0703
1426.00,0.0861
1413.00,0.0613
1400.00,0.1062
1387.00,0.0714
1374.00,0.0527
1361.00,0.0840
1348.00,0.0651
1335.00,0.0462
1322.00,0.0451
1309.00,0.0423
1296.00,0.0712
1283.00,0.0803
1270.00,0.0408
1257.00,0.0300
1244.00,0.0541
1231.00,0.0796
1218.00,0.0550
1205.00,0.0432
1192.00,0.0887
1179.00,0.0337
1166.00,0.0294
1153.00,0.0870
1140.00,0.0317
1127.00,0.1099
1114.00,0.0471
1101.00,0.0669
1088.00,0.0277
1075.00,0.0260
1062.00,0.0526
1049.00,0.1502
1036.00,0.0728
1023.00,0.1112
1010.00,0.0444
997.00,0.0570
984.00,0.0318
971.00,0.0289
958.00,0.0263
945.00,0.0224
932.00,0.0332
919.00,0.0347
906.00,0.0212
893.00,0.0326
880.00,0.0274
867.00,0.0887
854.00,0.0596
841.00,0.0531
828.00,0.0598
815.00,0.1240
802.00,0.0264
789.00,0.0212
776.00,0.0307
763.00,0.0256
750.00,0.0252
737.00,0.0553
724.00,0.0470
711.00,0.0471
698.00,0.0516
685.00,0.0528
672.00,0.0671
659.00,0.0631
646.00,0.0464
633.00,0.0437
620.00,0.0605
607.00,0.0581
594.00,0.0796
581.00,0.0714
568.00,0.0601
555.00,0.0717
542.00,0.0804
529.00,0.0815
516.00,0.0481
503.00,0.0490
490.00,0.0484
477.00,0.0374
464.00,0.0342
451.00,0.0331
438.00,0.0342
425.00,0.0293
412.00,0.0372
400.00,0.0326

File: 2025_07_29_Polystyrene_Std_scan1.csv
Created as New Dataset,Sample 951 By YargerLab Date Tuesday, July 29 2025
cm-1,A
4000.00,0.0009
3987.00,0.0009
3974.00,0.0008
3961.00,0.0008
3948.00,0.0008
3935.00,0.0008
3922.00,0.0008
3909.00,0.0008
3896.00,0.0008
3883.00,0.0009
3870.00,0.0008
3857.00,0.0008
3844.00,0.0008
3831.00,0.0008
3818.00,0.0009
3805.00,0.0009
3792.00,0.0009
3779.00,0.0009
3766.00,0.0009
3753.00,0.0009
3740.00,0.0008
3727.00,0.0008
3714.00,0.0008
3701.00,0.0009
3688.00,0.0008
3675.00,0.0009
3662.00,0.0009
3649.00,0.0009
3636.00,0.0010
3623.00,0.0009
3610.00,0.0010
3597.00,0.0010
3584.00,0.0011
3571.00,0.0012
3558.00,0.0012
3545.00,0.0014
3532.00,0.0015
3519.00,0.0016
3506.00,0.0017
3493.00,0.0018
3480.00,0.0018
3467.00,0.0019
3454.00,0.0019
3441.00,0.0019
3428.00,0.0019
3415.00,0.0019
3402.00,0.0019
3389.00,0.0019
3376.00,0.0019
3363.00,0.0019
3350.00,0.0018
3337.00,0.0018
3324.00,0.0017
3311.00,0.0018
3298.00,0.0016
3285.00,0.0017
3272.00,0.0017
3259.00,0.0017
3246.00,0.0016
3233.00,0.0015
3220.00,0.0015
3207.00,0.0016
3194.00,0.0015
3181.00,0.0015
3168.00,0.0015
3155.00,0.0014
3142.00,0.0014
3129.00,0.0014
3116.00,0.0017
3103.00,0.0034
3090.00,0.0046
3077.00,0.0067
3064.00,0.0097
3051.00,0.0071
3038.00,0.0077
3025.00,0.0215
3012.00,0.0061
2999.00,0.0059
2986.00,0.0034
2973.00,0.0038
2960.00,0.0055
2947.00,0.0095
2934.00,0.0191
2921.00,0.0265
2908.00,0.0201
2895.00,0.0120
2882.00,0.0084
2869.00,0.0068
2856.00,0.0101
2843.00,0.0094
2830.00,0.0033
2817.00,0.0024
2804.00,0.0022
2791.00,0.0019
2778.00,0.0018
2765.00,0.0016
2752.00,0.0015
2739.00,0.0015
2726.00,0.0016
2713.00,0.0016
2700.00,0.0015
2687.00,0.0015
2674.00,0.0015
2661.00,0.0018
2648.00,0.0020
2635.00,0.0020
2622.00,0.0018
2609.00,0.0018
2596.00,0.0016
2583.00,0.0015
2570.00,0.0014
2557.00,0.0013
2544.00,0.0012
2531.00,0.0012
2518.00,0.0011
2505.00,0.0011
2492.00,0.0011
2479.00,0.0010
2466.00,0.0010
2453.00,0.0010
2440.00,0.0009
2427.00,0.0008
2414.00,0.0007
2401.00,0.0006
2388.00,0.0007
2375.00,0.0005
2362.00,0.0008
2349.00,0.0010
2336.00,0.0013
2323.00,0.0020
2310.00,0.0015
2297.00,0.0014
2284.00,0.0017
2271.00,0.0013
2258.00,0.0012
2245.00,0.0011
2232.00,0.0010
2219.00,0.0008
2206.00,0.0009
2193.00,0.0011
2180.00,0.0004
2167.00,0.0013
2154.00,-0.0017
2141.00,-0.0008
2128.00,-0.0005
2115.00,0.0006
2102.00,0.0005
2089.00,0.0004
2076.00,0.0007
2063.00,0.0004
2050.00,0.0011
2037.00,0.0010
2024.00,-0.0003
2011.00,-0.0000
1998.00,-0.0000
1985.00,0.0010
1972.00,0.0002
1959.00,0.0008
1946.00,0.0025
1933.00,0.0014
1920.00,0.0006
1907.00,0.0004
1894.00,0.0011
1881.00,0.0022
1868.00,0.0026
1855.00,0.0011
1842.00,0.0006
1829.00,0.0011
1816.00,0.0017
1803.00,0.0030
1790.00,0.0018
1777.00,0.0015
1764.00,0.0017
1751.00,0.0031
1738.00,0.0037
1725.00,0.0031
1712.00,0.0026
1699.00,0.0033
1686.00,0.0055
1673.00,0.0063
1660.00,0.0059
1647.00,0.0043
1634.00,0.0030
1621.00,0.0031
1608.00,0.0081
1595.00,0.0102
1582.00,0.0081
1569.00,0.0024
1556.00,0.0022
1543.00,0.0033
1530.00,0.0022
1517.00,0.0021
1504.00,0.0042
1491.00,0.0433
1478.00,0.0057
1465.00,0.0065
1452.00,0.0484
1439.00,0.0186
1426.00,0.0064
1413.00,0.0043
1400.00,0.0041
1387.00,0.0066
1374.00,0.0106
1361.00,0.0098
1348.00,0.0086
1335.00,0.0078
1322.00,0.0085
1309.00,0.0086
1296.00,0.0079
1283.00,0.0070
1270.00,0.0054
1257.00,0.0047
1244.00,0.0049
1231.00,0.0047
1218.00,0.0048
1205.00,0.0060
1192.00,0.0073
1179.00,0.0093
1166.00,0.0058
1153.00,0.0096
1140.00,0.0041
1127.00,0.0038
1114.00,0.0051
1101.00,0.0054
1088.00,0.0066
1075.00,0.0107
1062.00,0.0108
1049.00,0.0071
1036.00,0.0099
1023.00,0.0168
1010.00,0.0088
997.00,0.0070
984.00,0.0080
971.00,0.0078
958.00,0.0074
945.00,0.0072
932.00,0.0053
919.00,0.0061
906.00,0.0155
893.00,0.0055
880.00,0.0039
867.00,0.0035
854.00,0.0040
841.00,0.0079
828.00,0.0036
815.00,0.0036
802.00,0.0041
789.00,0.0077
776.00,0.0196
763.00,0.0509
750.00,0.0659
737.00,0.0285
724.00,0.0078
711.00,0.0174
698.00,0.1495
685.00,0.0593
672.00,0.0270
659.00,0.0164
646.00,0.0108
633.00,0.0116
620.00,0.0139
607.00,0.0109
594.00,0.0120
581.00,0.0157
568.00,0.0261
555.00,0.0371
542.00,0.0574
529.00,0.0408
516.00,0.0200
503.00,0.0128
490.00,0.0105
477.00,0.0089
464.00,0.0084
451.00,0.0072
438.00,0.0074
425.00,0.0069
412.00,0.0070
400.00,0.0066