Folder: Data/FTIR/Olivia (part 20)

File: 2025_08_05_silicon_dish_scan3.csv
Created as New Dataset,Sample 1074 By YargerLab Date Tuesday, August 05 2025
cm-1,A
4000.00,0.0007
3987.00,0.0007
3974.00,0.0006
3961.00,0.0006
3948.00,0.0006
3935.00,0.0006
3922.00,0.0006
3909.00,0.0006
3896.00,0.0006
3883.00,0.0006
3870.00,0.0006
3857.00,0.0007
3844.00,0.0007
3831.00,0.0007
3818.00,0.0008
3805.00,0.0009
3792.00,0.0009
3779.00,0.0011
3766.00,0.0013
3753.00,0.0012
3740.00,0.0011
3727.00,0.0013
3714.00,0.0017
3701.00,0.0024
3688.00,0.0030
3675.00,0.0039
3662.00,0.0050
3649.00,0.0058
3636.00,0.0061
3623.00,0.0062
3610.00,0.0063
3597.00,0.0067
3584.00,0.0070
3571.00,0.0072
3558.00,0.0077
3545.00,0.0083
3532.00,0.0089
3519.00,0.0094
3506.00,0.0100
3493.00,0.0105
3480.00,0.0110
3467.00,0.0115
3454.00,0.0118
3441.00,0.0121
3428.00,0.0123
3415.00,0.0125
3402.00,0.0126
3389.00,0.0127
3376.00,0.0126
3363.00,0.0126
3350.00,0.0125
3337.00,0.0124
3324.00,0.0122
3311.00,0.0121
3298.00,0.0120
3285.00,0.0119
3272.00,0.0117
3259.00,0.0116
3246.00,0.0113
3233.00,0.0111
3220.00,0.0109
3207.00,0.0106
3194.00,0.0103
3181.00,0.0100
3168.00,0.0097
3155.00,0.0095
3142.00,0.0092
3129.00,0.0090
3116.00,0.0090
3103.00,0.0087
3090.00,0.0085
3077.00,0.0082
3064.00,0.0080
3051.00,0.0077
3038.00,0.0075
3025.00,0.0073
3012.00,0.0073
2999.00,0.0079
2986.00,0.0112
2973.00,0.0323
2960.00,0.0625
2947.00,0.0171
2934.00,0.0088
2921.00,0.0067
2908.00,0.0115
2895.00,0.0082
2882.00,0.0060
2869.00,0.0050
2856.00,0.0038
2843.00,0.0041
2830.00,0.0042
2817.00,0.0042
2804.00,0.0041
2791.00,0.0038
2778.00,0.0030
2765.00,0.0026
2752.00,0.0024
2739.00,0.0022
2726.00,0.0021
2713.00,0.0021
2700.00,0.0020
2687.00,0.0020
2674.00,0.0020
2661.00,0.0021
2648.00,0.0018
2635.00,0.0015
2622.00,0.0014
2609.00,0.0013
2596.00,0.0012
2583.00,0.0012
2570.00,0.0011
2557.00,0.0011
2544.00,0.0011
2531.00,0.0012
2518.00,0.0014
2505.00,0.0015
2492.00,0.0014
2479.00,0.0011
2466.00,0.0010
2453.00,0.0010
2440.00,0.0010
2427.00,0.0011
2414.00,0.0010
2401.00,0.0009
2388.00,0.0009
2375.00,0.0009
2362.00,0.0010
2349.00,0.0011
2336.00,0.0011
2323.00,0.0013
2310.00,0.0011
2297.00,0.0011
2284.00,0.0010
2271.00,0.0007
2258.00,0.0006
2245.00,0.0005
2232.00,0.0002
2219.00,0.0000
2206.00,-0.0003
2193.00,-0.0008
2180.00,-0.0011
2167.00,-0.0016
2154.00,-0.0023
2141.00,-0.0017
2128.00,-0.0008
2115.00,-0.0004
2102.00,-0.0006
2089.00,-0.0005
2076.00,-0.0008
2063.00,-0.0012
2050.00,-0.0018
2037.00,-0.0040
2024.00,-0.0055
2011.00,-0.0050
1998.00,-0.0034
1985.00,-0.0026
1972.00,-0.0024
1959.00,-0.0002
1946.00,0.0011
1933.00,0.0015
1920.00,0.0018
1907.00,0.0019
1894.00,0.0025
1881.00,0.0029
1868.00,0.0030
1855.00,0.0030
1842.00,0.0027
1829.00,0.0027
1816.00,0.0028
1803.00,0.0032
1790.00,0.0035
1777.00,0.0038
1764.00,0.0039
1751.00,0.0038
1738.00,0.0041
1725.00,0.0046
1712.00,0.0051
1699.00,0.0060
1686.00,0.0075
1673.00,0.0086
1660.00,0.0096
1647.00,0.0106
1634.00,0.0112
1621.00,0.0109
1608.00,0.0095
1595.00,0.0082
1582.00,0.0074
1569.00,0.0067
1556.00,0.0062
1543.00,0.0067
1530.00,0.0068
1517.00,0.0068
1504.00,0.0073
1491.00,0.0080
1478.00,0.0090
1465.00,0.0093
1452.00,0.0124
1439.00,0.0135
1426.00,0.0149
1413.00,0.0247
1400.00,0.0209
1387.00,0.0126
1374.00,0.0105
1361.00,0.0099
1348.00,0.0100
1335.00,0.0102
1322.00,0.0110
1309.00,0.0128
1296.00,0.0159
1283.00,0.0230
1270.00,0.0658
1257.00,0.2727
1244.00,0.0951
1231.00,0.1021
1218.00,0.1164
1205.00,0.1286
1192.00,0.1397
1179.00,0.1512
1166.00,0.1629
1153.00,0.1742
1140.00,0.1885
1127.00,0.2120
1114.00,0.2649
1101.00,0.3906
1088.00,0.5534
1075.00,0.6559
1062.00,0.6938
1049.00,0.6970
1036.00,0.7041
1023.00,0.7937
1010.00,1.0597
997.00,0.7483
984.00,0.3845
971.00,0.2365
958.00,0.1745
945.00,0.1348
932.00,0.1055
919.00,0.0863
906.00,0.0792
893.00,0.0829
880.00,0.1160
867.00,0.1485
854.00,0.1237
841.00,0.1143
828.00,0.1750
815.00,0.3585
802.00,0.6288
789.00,1.0770
776.00,0.6936
763.00,0.3304
750.00,0.2151
737.00,0.1656
724.00,0.1347
711.00,0.1511
698.00,0.1849
685.00,0.1817
672.00,0.1597
659.00,0.1658
646.00,0.1006
633.00,0.0983
620.00,0.0998
607.00,0.1024
594.00,0.1084
581.00,0.1176
568.00,0.1273
555.00,0.1362
542.00,0.1399
529.00,0.1408
516.00,0.1478
503.00,0.1769
490.00,0.2598
477.00,0.4173
464.00,0.5587
451.00,0.5673
438.00,0.4708
425.00,0.3511
412.00,0.3459
400.00,0.4826

File: 2025_08_06_1CBN_3PVP10_MP_Powder_Scan1.csv
Created as New Dataset,Sample 1088 By YargerLab Date Wednesday, August 06 2025
cm-1,A
4000.00,0.0109
3987.00,0.0109
3974.00,0.0109
3961.00,0.0110
3948.00,0.0109
3935.00,0.0109
3922.00,0.0109
3909.00,0.0109
3896.00,0.0109
3883.00,0.0108
3870.00,0.0107
3857.00,0.0107
3844.00,0.0108
3831.00,0.0108
3818.00,0.0107
3805.00,0.0107
3792.00,0.0107
3779.00,0.0107
3766.00,0.0107
3753.00,0.0106
3740.00,0.0105
3727.00,0.0104
3714.00,0.0105
3701.00,0.0105
3688.00,0.0106
3675.00,0.0108
3662.00,0.0111
3649.00,0.0113
3636.00,0.0120
3623.00,0.0128
3610.00,0.0137
3597.00,0.0149
3584.00,0.0164
3571.00,0.0180
3558.00,0.0197
3545.00,0.0214
3532.00,0.0228
3519.00,0.0241
3506.00,0.0250
3493.00,0.0260
3480.00,0.0274
3467.00,0.0288
3454.00,0.0303
3441.00,0.0319
3428.00,0.0338
3415.00,0.0362
3402.00,0.0376
3389.00,0.0369
3376.00,0.0349
3363.00,0.0329
3350.00,0.0314
3337.00,0.0305
3324.00,0.0300
3311.00,0.0300
3298.00,0.0303
3285.00,0.0310
3272.00,0.0312
3259.00,0.0318
3246.00,0.0319
3233.00,0.0317
3220.00,0.0313
3207.00,0.0299
3194.00,0.0282
3181.00,0.0263
3168.00,0.0246
3155.00,0.0226
3142.00,0.0211
3129.00,0.0198
3116.00,0.0188
3103.00,0.0178
3090.00,0.0174
3077.00,0.0171
3064.00,0.0167
3051.00,0.0166
3038.00,0.0168
3025.00,0.0166
3012.00,0.0166
2999.00,0.0206
2986.00,0.0278
2973.00,0.0371
2960.00,0.0455
2947.00,0.0400
2934.00,0.0510
2921.00,0.0569
2908.00,0.0424
2895.00,0.0359
2882.00,0.0337
2869.00,0.0368
2856.00,0.0447
2843.00,0.0306
2830.00,0.0226
2817.00,0.0193
2804.00,0.0177
2791.00,0.0168
2778.00,0.0161
2765.00,0.0158
2752.00,0.0157
2739.00,0.0158
2726.00,0.0160
2713.00,0.0156
2700.00,0.0154
2687.00,0.0150
2674.00,0.0150
2661.00,0.0155
2648.00,0.0155
2635.00,0.0153
2622.00,0.0148
2609.00,0.0147
2596.00,0.0147
2583.00,0.0147
2570.00,0.0146
2557.00,0.0143
2544.00,0.0141
2531.00,0.0141
2518.00,0.0138
2505.00,0.0135
2492.00,0.0134
2479.00,0.0133
2466.00,0.0132
2453.00,0.0133
2440.00,0.0131
2427.00,0.0130
2414.00,0.0130
2401.00,0.0130
2388.00,0.0127
2375.00,0.0124
2362.00,0.0123
2349.00,0.0125
2336.00,0.0130
2323.00,0.0143
2310.00,0.0134
2297.00,0.0136
2284.00,0.0140
2271.00,0.0132
2258.00,0.0129
2245.00,0.0130
2232.00,0.0129
2219.00,0.0123
2206.00,0.0129
2193.00,0.0128
2180.00,0.0122
2167.00,0.0137
2154.00,0.0101
2141.00,0.0109
2128.00,0.0112
2115.00,0.0124
2102.00,0.0123
2089.00,0.0120
2076.00,0.0125
2063.00,0.0118
2050.00,0.0124
2037.00,0.0117
2024.00,0.0108
2011.00,0.0113
1998.00,0.0109
1985.00,0.0117
1972.00,0.0101
1959.00,0.0098
1946.00,0.0101
1933.00,0.0103
1920.00,0.0106
1907.00,0.0120
1894.00,0.0114
1881.00,0.0110
1868.00,0.0109
1855.00,0.0110
1842.00,0.0111
1829.00,0.0107
1816.00,0.0106
1803.00,0.0110
1790.00,0.0109
1777.00,0.0112
1764.00,0.0112
1751.00,0.0112
1738.00,0.0113
1725.00,0.0138
1712.00,0.0175
1699.00,0.0305
1686.00,0.0680
1673.00,0.1116
1660.00,0.1407
1647.00,0.1391
1634.00,0.1004
1621.00,0.1053
1608.00,0.0735
1595.00,0.0445
1582.00,0.0610
1569.00,0.0411
1556.00,0.0270
1543.00,0.0239
1530.00,0.0222
1517.00,0.0244
1504.00,0.0328
1491.00,0.0494
1478.00,0.0297
1465.00,0.0701
1452.00,0.0613
1439.00,0.0911
1426.00,0.1161
1413.00,0.0810
1400.00,0.0752
1387.00,0.0570
1374.00,0.0575
1361.00,0.0645
1348.00,0.0497
1335.00,0.0417
1322.00,0.0522
1309.00,0.0510
1296.00,0.0852
1283.00,0.1279
1270.00,0.1074
1257.00,0.0688
1244.00,0.0662
1231.00,0.0820
1218.00,0.0705
1205.00,0.0578
1192.00,0.0730
1179.00,0.0476
1166.00,0.0489
1153.00,0.0695
1140.00,0.0398
1127.00,0.0741
1114.00,0.0457
1101.00,0.0552
1088.00,0.0373
1075.00,0.0374
1062.00,0.0488
1049.00,0.0904
1036.00,0.0547
1023.00,0.0745
1010.00,0.0442
997.00,0.0493
984.00,0.0354
971.00,0.0328
958.00,0.0312
945.00,0.0293
932.00,0.0379
919.00,0.0357
906.00,0.0301
893.00,0.0362
880.00,0.0317
867.00,0.0578
854.00,0.0513
841.00,0.0530
828.00,0.0501
815.00,0.0727
802.00,0.0324
789.00,0.0306
776.00,0.0357
763.00,0.0367
750.00,0.0421
737.00,0.0598
724.00,0.0535
711.00,0.0512
698.00,0.0544
685.00,0.0592
672.00,0.0703
659.00,0.0791
646.00,0.0811
633.00,0.0736
620.00,0.0765
607.00,0.0765
594.00,0.0884
581.00,0.0948
568.00,0.0950
555.00,0.0935
542.00,0.0942
529.00,0.0945
516.00,0.0814
503.00,0.0823
490.00,0.0839
477.00,0.0800
464.00,0.0786
451.00,0.0755
438.00,0.0723
425.00,0.0669
412.00,0.0677
400.00,0.0652

File: 2025_08_06_1CBN_3PVP10_MP_Powder_Scan2.csv
Created as New Dataset,Sample 1089 By YargerLab Date Wednesday, August 06 2025
cm-1,A
4000.00,0.0084
3987.00,0.0084
3974.00,0.0085
3961.00,0.0085
3948.00,0.0083
3935.00,0.0084
3922.00,0.0083
3909.00,0.0083
3896.00,0.0082
3883.00,0.0081
3870.00,0.0080
3857.00,0.0080
3844.00,0.0082
3831.00,0.0082
3818.00,0.0080
3805.00,0.0080
3792.00,0.0082
3779.00,0.0082
3766.00,0.0081
3753.00,0.0079
3740.00,0.0079
3727.00,0.0078
3714.00,0.0080
3701.00,0.0080
3688.00,0.0081
3675.00,0.0082
3662.00,0.0087
3649.00,0.0086
3636.00,0.0096
3623.00,0.0102
3610.00,0.0111
3597.00,0.0123
3584.00,0.0136
3571.00,0.0151
3558.00,0.0168
3545.00,0.0184
3532.00,0.0197
3519.00,0.0209
3506.00,0.0218
3493.00,0.0230
3480.00,0.0243
3467.00,0.0257
3454.00,0.0274
3441.00,0.0291
3428.00,0.0314
3415.00,0.0339
3402.00,0.0355
3389.00,0.0346
3376.00,0.0326
3363.00,0.0305
3350.00,0.0289
3337.00,0.0280
3324.00,0.0276
3311.00,0.0276
3298.00,0.0280
3285.00,0.0289
3272.00,0.0291
3259.00,0.0298
3246.00,0.0301
3233.00,0.0300
3220.00,0.0294
3207.00,0.0280
3194.00,0.0262
3181.00,0.0241
3168.00,0.0223
3155.00,0.0202
3142.00,0.0184
3129.00,0.0171
3116.00,0.0160
3103.00,0.0150
3090.00,0.0146
3077.00,0.0144
3064.00,0.0140
3051.00,0.0139
3038.00,0.0141
3025.00,0.0139
3012.00,0.0139
2999.00,0.0180
2986.00,0.0251
2973.00,0.0347
2960.00,0.0429
2947.00,0.0367
2934.00,0.0490
2921.00,0.0541
2908.00,0.0389
2895.00,0.0323
2882.00,0.0300
2869.00,0.0334
2856.00,0.0419
2843.00,0.0269
2830.00,0.0188
2817.00,0.0156
2804.00,0.0142
2791.00,0.0133
2778.00,0.0127
2765.00,0.0123
2752.00,0.0123
2739.00,0.0125
2726.00,0.0127
2713.00,0.0122
2700.00,0.0120
2687.00,0.0117
2674.00,0.0116
2661.00,0.0121
2648.00,0.0122
2635.00,0.0120
2622.00,0.0115
2609.00,0.0113
2596.00,0.0115
2583.00,0.0115
2570.00,0.0113
2557.00,0.0109
2544.00,0.0108
2531.00,0.0107
2518.00,0.0105
2505.00,0.0102
2492.00,0.0101
2479.00,0.0099
2466.00,0.0099
2453.00,0.0101
2440.00,0.0098
2427.00,0.0097
2414.00,0.0097
2401.00,0.0096
2388.00,0.0093
2375.00,0.0089
2362.00,0.0089
2349.00,0.0093
2336.00,0.0095
2323.00,0.0107
2310.00,0.0096
2297.00,0.0099
2284.00,0.0105
2271.00,0.0099
2258.00,0.0094
2245.00,0.0096
2232.00,0.0096
2219.00,0.0092
2206.00,0.0095
2193.00,0.0095
2180.00,0.0091
2167.00,0.0103
2154.00,0.0067
2141.00,0.0077
2128.00,0.0080
2115.00,0.0091
2102.00,0.0087
2089.00,0.0089
2076.00,0.0090
2063.00,0.0085
2050.00,0.0093
2037.00,0.0083
2024.00,0.0077
2011.00,0.0073
1998.00,0.0077
1985.00,0.0087
1972.00,0.0069
1959.00,0.0064
1946.00,0.0071
1933.00,0.0075
1920.00,0.0079
1907.00,0.0091
1894.00,0.0087
1881.00,0.0081
1868.00,0.0082
1855.00,0.0083
1842.00,0.0084
1829.00,0.0082
1816.00,0.0079
1803.00,0.0084
1790.00,0.0084
1777.00,0.0090
1764.00,0.0091
1751.00,0.0090
1738.00,0.0093
1725.00,0.0119
1712.00,0.0158
1699.00,0.0277
1686.00,0.0611
1673.00,0.1005
1660.00,0.1274
1647.00,0.1269
1634.00,0.0931
1621.00,0.1017
1608.00,0.0693
1595.00,0.0395
1582.00,0.0577
1569.00,0.0370
1556.00,0.0217
1543.00,0.0193
1530.00,0.0179
1517.00,0.0208
1504.00,0.0293
1491.00,0.0454
1478.00,0.0265
1465.00,0.0671
1452.00,0.0576
1439.00,0.0872
1426.00,0.1095
1413.00,0.0740
1400.00,0.0719
1387.00,0.0535
1374.00,0.0530
1361.00,0.0614
1348.00,0.0462
1335.00,0.0383
1322.00,0.0485
1309.00,0.0474
1296.00,0.0822
1283.00,0.1192
1270.00,0.0975
1257.00,0.0607
1244.00,0.0603
1231.00,0.0763
1218.00,0.0643
1205.00,0.0515
1192.00,0.0679
1179.00,0.0412
1166.00,0.0422
1153.00,0.0640
1140.00,0.0336
1127.00,0.0698
1114.00,0.0396
1101.00,0.0496
1088.00,0.0308
1075.00,0.0312
1062.00,0.0437
1049.00,0.0872
1036.00,0.0498
1023.00,0.0698
1010.00,0.0382
997.00,0.0433
984.00,0.0290
971.00,0.0265
958.00,0.0252
945.00,0.0236
932.00,0.0322
919.00,0.0300
906.00,0.0246
893.00,0.0308
880.00,0.0265
867.00,0.0538
854.00,0.0470
841.00,0.0478
828.00,0.0452
815.00,0.0691
802.00,0.0272
789.00,0.0259
776.00,0.0315
763.00,0.0326
750.00,0.0382
737.00,0.0564
724.00,0.0493
711.00,0.0476
698.00,0.0513
685.00,0.0561
672.00,0.0674
659.00,0.0759
646.00,0.0768
633.00,0.0696
620.00,0.0734
607.00,0.0735
594.00,0.0852
581.00,0.0912
568.00,0.0906
555.00,0.0899
542.00,0.0903
529.00,0.0903
516.00,0.0768
503.00,0.0779
490.00,0.0784
477.00,0.0744
464.00,0.0735
451.00,0.0703
438.00,0.0676
425.00,0.0618
412.00,0.0634
400.00,0.0593

File: 2025_08_06_1CBN_3PVP10_MP_Powder_Scan3.csv
Created as New Dataset,Sample 1090 By YargerLab Date Wednesday, August 06 2025
cm-1,A
4000.00,0.0079
3987.00,0.0079
3974.00,0.0080
3961.00,0.0080
3948.00,0.0079
3935.00,0.0079
3922.00,0.0080
3909.00,0.0079
3896.00,0.0079
3883.00,0.0079
3870.00,0.0079
3857.00,0.0079
3844.00,0.0078
3831.00,0.0078
3818.00,0.0078
3805.00,0.0078
3792.00,0.0078
3779.00,0.0078
3766.00,0.0078
3753.00,0.0078
3740.00,0.0077
3727.00,0.0075
3714.00,0.0077
3701.00,0.0076
3688.00,0.0078
3675.00,0.0081
3662.00,0.0083
3649.00,0.0087
3636.00,0.0094
3623.00,0.0102
3610.00,0.0113
3597.00,0.0125
3584.00,0.0142
3571.00,0.0157
3558.00,0.0176
3545.00,0.0194
3532.00,0.0209
3519.00,0.0222
3506.00,0.0233
3493.00,0.0245
3480.00,0.0260
3467.00,0.0276
3454.00,0.0294
3441.00,0.0314
3428.00,0.0338
3415.00,0.0366
3402.00,0.0383
3389.00,0.0375
3376.00,0.0352
3363.00,0.0328
3350.00,0.0310
3337.00,0.0299
3324.00,0.0296
3311.00,0.0295
3298.00,0.0300
3285.00,0.0308
3272.00,0.0311
3259.00,0.0318
3246.00,0.0321
3233.00,0.0320
3220.00,0.0313
3207.00,0.0297
3194.00,0.0276
3181.00,0.0254
3168.00,0.0232
3155.00,0.0209
3142.00,0.0190
3129.00,0.0175
3116.00,0.0163
3103.00,0.0151
3090.00,0.0148
3077.00,0.0144
3064.00,0.0140
3051.00,0.0141
3038.00,0.0142
3025.00,0.0141
3012.00,0.0141
2999.00,0.0187
2986.00,0.0268
2973.00,0.0375
2960.00,0.0468
2947.00,0.0398
2934.00,0.0537
2921.00,0.0593
2908.00,0.0420
2895.00,0.0346
2882.00,0.0319
2869.00,0.0358
2856.00,0.0454
2843.00,0.0282
2830.00,0.0191
2817.00,0.0155
2804.00,0.0140
2791.00,0.0130
2778.00,0.0123
2765.00,0.0119
2752.00,0.0119
2739.00,0.0121
2726.00,0.0124
2713.00,0.0119
2700.00,0.0117
2687.00,0.0112
2674.00,0.0111
2661.00,0.0117
2648.00,0.0118
2635.00,0.0116
2622.00,0.0110
2609.00,0.0109
2596.00,0.0110
2583.00,0.0111
2570.00,0.0109
2557.00,0.0105
2544.00,0.0104
2531.00,0.0104
2518.00,0.0100
2505.00,0.0096
2492.00,0.0096
2479.00,0.0094
2466.00,0.0093
2453.00,0.0095
2440.00,0.0092
2427.00,0.0092
2414.00,0.0091
2401.00,0.0091
2388.00,0.0087
2375.00,0.0084
2362.00,0.0084
2349.00,0.0086
2336.00,0.0090
2323.00,0.0102
2310.00,0.0091
2297.00,0.0095
2284.00,0.0100
2271.00,0.0094
2258.00,0.0090
2245.00,0.0091
2232.00,0.0090
2219.00,0.0085
2206.00,0.0090
2193.00,0.0090
2180.00,0.0088
2167.00,0.0098
2154.00,0.0062
2141.00,0.0071
2128.00,0.0075
2115.00,0.0085
2102.00,0.0083
2089.00,0.0082
2076.00,0.0084
2063.00,0.0079
2050.00,0.0087
2037.00,0.0078
2024.00,0.0070
2011.00,0.0068
1998.00,0.0070
1985.00,0.0079
1972.00,0.0061
1959.00,0.0062
1946.00,0.0064
1933.00,0.0069
1920.00,0.0073
1907.00,0.0087
1894.00,0.0081
1881.00,0.0076
1868.00,0.0077
1855.00,0.0077
1842.00,0.0079
1829.00,0.0077
1816.00,0.0075
1803.00,0.0080
1790.00,0.0081
1777.00,0.0087
1764.00,0.0089
1751.00,0.0089
1738.00,0.0093
1725.00,0.0122
1712.00,0.0166
1699.00,0.0303
1686.00,0.0675
1673.00,0.1117
1660.00,0.1423
1647.00,0.1415
1634.00,0.1036
1621.00,0.1134
1608.00,0.0762
1595.00,0.0422
1582.00,0.0631
1569.00,0.0394
1556.00,0.0222
1543.00,0.0195
1530.00,0.0181
1517.00,0.0216
1504.00,0.0318
1491.00,0.0493
1478.00,0.0281
1465.00,0.0745
1452.00,0.0635
1439.00,0.0973
1426.00,0.1224
1413.00,0.0813
1400.00,0.0791
1387.00,0.0582
1374.00,0.0577
1361.00,0.0673
1348.00,0.0501
1335.00,0.0415
1322.00,0.0531
1309.00,0.0520
1296.00,0.0916
1283.00,0.1333
1270.00,0.1081
1257.00,0.0659
1244.00,0.0659
1231.00,0.0843
1218.00,0.0705
1205.00,0.0559
1192.00,0.0745
1179.00,0.0443
1166.00,0.0454
1153.00,0.0698
1140.00,0.0354
1127.00,0.0763
1114.00,0.0422
1101.00,0.0537
1088.00,0.0324
1075.00,0.0329
1062.00,0.0474
1049.00,0.0966
1036.00,0.0541
1023.00,0.0766
1010.00,0.0408
997.00,0.0466
984.00,0.0304
971.00,0.0277
958.00,0.0260
945.00,0.0243
932.00,0.0343
919.00,0.0317
906.00,0.0257
893.00,0.0328
880.00,0.0279
867.00,0.0583
854.00,0.0509
841.00,0.0521
828.00,0.0489
815.00,0.0760
802.00,0.0287
789.00,0.0274
776.00,0.0339
763.00,0.0352
750.00,0.0415
737.00,0.0623
724.00,0.0541
711.00,0.0521
698.00,0.0565
685.00,0.0618
672.00,0.0746
659.00,0.0842
646.00,0.0850
633.00,0.0772
620.00,0.0817
607.00,0.0816
594.00,0.0946
581.00,0.1013
568.00,0.1008
555.00,0.0995
542.00,0.1004
529.00,0.1008
516.00,0.0850
503.00,0.0862
490.00,0.0870
477.00,0.0834
464.00,0.0818
451.00,0.0775
438.00,0.0751
425.00,0.0700
412.00,0.0708
400.00,0.0692

File: 2025_08_06_1CBN_3PVP10_MP_Powder_Sigma1.csv
Created as New Dataset,Sample 005 By YargerLab Date Wednesday, August 06 2025
cm-1,A
4000.00,0.0007
3987.00,0.0007
3974.00,0.0007
3961.00,0.0006
3948.00,0.0006
3935.00,0.0006
3922.00,0.0006
3909.00,0.0006
3896.00,0.0005
3883.00,0.0004
3870.00,0.0004
3857.00,0.0004
3844.00,0.0005
3831.00,0.0006
3818.00,0.0004
3805.00,0.0005
3792.00,0.0007
3779.00,0.0007
3766.00,0.0006
3753.00,0.0005
3740.00,0.0004
3727.00,0.0005
3714.00,0.0005
3701.00,0.0007
3688.00,0.0006
3675.00,0.0006
3662.00,0.0012
3649.00,0.0011
3636.00,0.0017
3623.00,0.0021
3610.00,0.0025
3597.00,0.0033
3584.00,0.0039
3571.00,0.0050
3558.00,0.0059
3545.00,0.0067
3532.00,0.0077
3519.00,0.0084
3506.00,0.0091
3493.00,0.0096
3480.00,0.0099
3467.00,0.0105
3454.00,0.0109
3441.00,0.0112
3428.00,0.0115
3415.00,0.0118
3402.00,0.0122
3389.00,0.0123
3376.00,0.0120
3363.00,0.0113
3350.00,0.0107
3337.00,0.0101
3324.00,0.0097
3311.00,0.0095
3298.00,0.0093
3285.00,0.0092
3272.00,0.0090
3259.00,0.0088
3246.00,0.0085
3233.00,0.0082
3220.00,0.0079
3207.00,0.0074
3194.00,0.0070
3181.00,0.0064
3168.00,0.0058
3155.00,0.0053
3142.00,0.0048
3129.00,0.0043
3116.00,0.0039
3103.00,0.0037
3090.00,0.0033
3077.00,0.0031
3064.00,0.0029
3051.00,0.0027
3038.00,0.0025
3025.00,0.0024
3012.00,0.0028
2999.00,0.0042
2986.00,0.0055
2973.00,0.0076
2960.00,0.0084
2947.00,0.0083
2934.00,0.0092
2921.00,0.0089
2908.00,0.0075
2895.00,0.0071
2882.00,0.0069
2869.00,0.0067
2856.00,0.0067
2843.00,0.0046
2830.00,0.0034
2817.00,0.0027
2804.00,0.0023
2791.00,0.0021
2778.00,0.0020
2765.00,0.0019
2752.00,0.0018
2739.00,0.0019
2726.00,0.0019
2713.00,0.0017
2700.00,0.0017
2687.00,0.0016
2674.00,0.0016
2661.00,0.0020
2648.00,0.0021
2635.00,0.0020
2622.00,0.0019
2609.00,0.0018
2596.00,0.0017
2583.00,0.0017
2570.00,0.0016
2557.00,0.0015
2544.00,0.0014
2531.00,0.0012
2518.00,0.0012
2505.00,0.0011
2492.00,0.0012
2479.00,0.0011
2466.00,0.0012
2453.00,0.0012
2440.00,0.0011
2427.00,0.0010
2414.00,0.0010
2401.00,0.0009
2388.00,0.0008
2375.00,0.0006
2362.00,0.0007
2349.00,0.0008
2336.00,0.0011
2323.00,0.0022
2310.00,0.0015
2297.00,0.0019
2284.00,0.0023
2271.00,0.0019
2258.00,0.0016
2245.00,0.0016
2232.00,0.0015
2219.00,0.0017
2206.00,0.0016
2193.00,0.0020
2180.00,0.0014
2167.00,0.0025
2154.00,-0.0006
2141.00,-0.0001
2128.00,0.0002
2115.00,0.0017
2102.00,0.0014
2089.00,0.0013
2076.00,0.0015
2063.00,0.0012
2050.00,0.0022
2037.00,0.0015
2024.00,0.0007
2011.00,0.0009
1998.00,0.0008
1985.00,0.0015
1972.00,0.0001
1959.00,-0.0005
1946.00,0.0001
1933.00,-0.0000
1920.00,0.0005
1907.00,0.0006
1894.00,0.0005
1881.00,0.0005
1868.00,0.0004
1855.00,0.0006
1842.00,0.0004
1829.00,0.0005
1816.00,0.0003
1803.00,0.0006
1790.00,0.0007
1777.00,0.0008
1764.00,0.0009
1751.00,0.0010
1738.00,0.0012
1725.00,0.0018
1712.00,0.0027
1699.00,0.0058
1686.00,0.0182
1673.00,0.0344
1660.00,0.0505
1647.00,0.0598
1634.00,0.0461
1621.00,0.0346
1608.00,0.0224
1595.00,0.0132
1582.00,0.0122
1569.00,0.0086
1556.00,0.0057
1543.00,0.0049
1530.00,0.0045
1517.00,0.0049
1504.00,0.0079
1491.00,0.0135
1478.00,0.0076
1465.00,0.0224
1452.00,0.0184
1439.00,0.0310
1426.00,0.0341
1413.00,0.0214
1400.00,0.0140
1387.00,0.0122
1374.00,0.0149
1361.00,0.0135
1348.00,0.0103
1335.00,0.0097
1322.00,0.0148
1309.00,0.0149
1296.00,0.0276
1283.00,0.0419
1270.00,0.0364
1257.00,0.0208
1244.00,0.0180
1231.00,0.0208
1218.00,0.0205
1205.00,0.0169
1192.00,0.0163
1179.00,0.0133
1166.00,0.0142
1153.00,0.0145
1140.00,0.0100
1127.00,0.0137
1114.00,0.0108
1101.00,0.0124
1088.00,0.0096
1075.00,0.0100
1062.00,0.0116
1049.00,0.0164
1036.00,0.0126
1023.00,0.0155
1010.00,0.0115
997.00,0.0116
984.00,0.0087
971.00,0.0078
958.00,0.0076
945.00,0.0065
932.00,0.0094
919.00,0.0081
906.00,0.0082
893.00,0.0091
880.00,0.0082
867.00,0.0113
854.00,0.0133
841.00,0.0148
828.00,0.0127
815.00,0.0158
802.00,0.0102
789.00,0.0108
776.00,0.0128
763.00,0.0146
750.00,0.0175
737.00,0.0229
724.00,0.0214
711.00,0.0209
698.00,0.0224
685.00,0.0242
672.00,0.0279
659.00,0.0318
646.00,0.0353
633.00,0.0333
620.00,0.0336
607.00,0.0336
594.00,0.0365
581.00,0.0394
568.00,0.0409
555.00,0.0403
542.00,0.0400
529.00,0.0401
516.00,0.0382
503.00,0.0383
490.00,0.0386
477.00,0.0394
464.00,0.0389
451.00,0.0368
438.00,0.0359
425.00,0.0340
412.00,0.0342
400.00,0.0352

File: 2025_08_06_1CBN_3PVP10_MP_Powder_Sigma2.csv
Created as New Dataset,Sample 006 By YargerLab Date Wednesday, August 06 2025
cm-1,A
4000.00,0.0008
3987.00,0.0008
3974.00,0.0008
3961.00,0.0007
3948.00,0.0008
3935.00,0.0007
3922.00,0.0007
3909.00,0.0008
3896.00,0.0007
3883.00,0.0006
3870.00,0.0006
3857.00,0.0006
3844.00,0.0007
3831.00,0.0007
3818.00,0.0006
3805.00,0.0007
3792.00,0.0008
3779.00,0.0008
3766.00,0.0007
3753.00,0.0006
3740.00,0.0006
3727.00,0.0007
3714.00,0.0007
3701.00,0.0008
3688.00,0.0008
3675.00,0.0010
3662.00,0.0013
3649.00,0.0015
3636.00,0.0021
3623.00,0.0027
3610.00,0.0033
3597.00,0.0041
3584.00,0.0049
3571.00,0.0062
3558.00,0.0073
3545.00,0.0083
3532.00,0.0093
3519.00,0.0101
3506.00,0.0109
3493.00,0.0115
3480.00,0.0119
3467.00,0.0126
3454.00,0.0130
3441.00,0.0134
3428.00,0.0138
3415.00,0.0141
3402.00,0.0145
3389.00,0.0145
3376.00,0.0140
3363.00,0.0132
3350.00,0.0125
3337.00,0.0119
3324.00,0.0115
3311.00,0.0111
3298.00,0.0110
3285.00,0.0109
3272.00,0.0106
3259.00,0.0105
3246.00,0.0101
3233.00,0.0097
3220.00,0.0093
3207.00,0.0088
3194.00,0.0081
3181.00,0.0075
3168.00,0.0068
3155.00,0.0062
3142.00,0.0056
3129.00,0.0051
3116.00,0.0047
3103.00,0.0043
3090.00,0.0040
3077.00,0.0037
3064.00,0.0035
3051.00,0.0033
3038.00,0.0031
3025.00,0.0031
3012.00,0.0034
2999.00,0.0052
2986.00,0.0071
2973.00,0.0096
2960.00,0.0110
2947.00,0.0108
2934.00,0.0118
2921.00,0.0118
2908.00,0.0098
2895.00,0.0091
2882.00,0.0089
2869.00,0.0087
2856.00,0.0087
2843.00,0.0058
2830.00,0.0042
2817.00,0.0033
2804.00,0.0028
2791.00,0.0026
2778.00,0.0024
2765.00,0.0022
2752.00,0.0022
2739.00,0.0023
2726.00,0.0022
2713.00,0.0021
2700.00,0.0021
2687.00,0.0019
2674.00,0.0019
2661.00,0.0023
2648.00,0.0024
2635.00,0.0023
2622.00,0.0022
2609.00,0.0021
2596.00,0.0020
2583.00,0.0019
2570.00,0.0019
2557.00,0.0017
2544.00,0.0016
2531.00,0.0015
2518.00,0.0015
2505.00,0.0014
2492.00,0.0014
2479.00,0.0013
2466.00,0.0013
2453.00,0.0014
2440.00,0.0013
2427.00,0.0012
2414.00,0.0012
2401.00,0.0011
2388.00,0.0010
2375.00,0.0010
2362.00,0.0010
2349.00,0.0012
2336.00,0.0015
2323.00,0.0025
2310.00,0.0017
2297.00,0.0021
2284.00,0.0024
2271.00,0.0021
2258.00,0.0018
2245.00,0.0020
2232.00,0.0016
2219.00,0.0019
2206.00,0.0018
2193.00,0.0022
2180.00,0.0017
2167.00,0.0028
2154.00,-0.0003
2141.00,0.0003
2128.00,0.0006
2115.00,0.0019
2102.00,0.0015
2089.00,0.0015
2076.00,0.0016
2063.00,0.0014
2050.00,0.0024
2037.00,0.0015
2024.00,0.0006
2011.00,0.0009
1998.00,0.0008
1985.00,0.0015
1972.00,-0.0001
1959.00,-0.0005
1946.00,0.0002
1933.00,0.0002
1920.00,0.0005
1907.00,0.0007
1894.00,0.0007
1881.00,0.0007
1868.00,0.0006
1855.00,0.0008
1842.00,0.0007
1829.00,0.0006
1816.00,0.0005
1803.00,0.0008
1790.00,0.0009
1777.00,0.0010
1764.00,0.0012
1751.00,0.0012
1738.00,0.0015
1725.00,0.0023
1712.00,0.0036
1699.00,0.0082
1686.00,0.0253
1673.00,0.0469
1660.00,0.0676
1647.00,0.0773
1634.00,0.0578
1621.00,0.0430
1608.00,0.0279
1595.00,0.0160
1582.00,0.0152
1569.00,0.0105
1556.00,0.0071
1543.00,0.0059
1530.00,0.0055
1517.00,0.0061
1504.00,0.0101
1491.00,0.0171
1478.00,0.0096
1465.00,0.0285
1452.00,0.0235
1439.00,0.0395
1426.00,0.0448
1413.00,0.0280
1400.00,0.0181
1387.00,0.0154
1374.00,0.0191
1361.00,0.0173
1348.00,0.0130
1335.00,0.0123
1322.00,0.0188
1309.00,0.0188
1296.00,0.0353
1283.00,0.0546
1270.00,0.0477
1257.00,0.0271
1244.00,0.0232
1231.00,0.0269
1218.00,0.0263
1205.00,0.0212
1192.00,0.0208
1179.00,0.0166
1166.00,0.0178
1153.00,0.0183
1140.00,0.0123
1127.00,0.0171
1114.00,0.0132
1101.00,0.0152
1088.00,0.0118
1075.00,0.0125
1062.00,0.0148
1049.00,0.0203
1036.00,0.0153
1023.00,0.0193
1010.00,0.0141
997.00,0.0143
984.00,0.0105
971.00,0.0093
958.00,0.0091
945.00,0.0079
932.00,0.0116
919.00,0.0100
906.00,0.0099
893.00,0.0113
880.00,0.0101
867.00,0.0142
854.00,0.0166
841.00,0.0186
828.00,0.0158
815.00,0.0196
802.00,0.0123
789.00,0.0129
776.00,0.0154
763.00,0.0177
750.00,0.0213
737.00,0.0280
724.00,0.0261
711.00,0.0253
698.00,0.0269
685.00,0.0294
672.00,0.0342
659.00,0.0393
646.00,0.0438
633.00,0.0408
620.00,0.0413
607.00,0.0411
594.00,0.0446
581.00,0.0487
568.00,0.0509
555.00,0.0496
542.00,0.0490
529.00,0.0490
516.00,0.0464
503.00,0.0467
490.00,0.0475
477.00,0.0482
464.00,0.0485
451.00,0.0463
438.00,0.0440
425.00,0.0416
412.00,0.0405
400.00,0.0402