Folder: Data/FTIR/Olivia (part 8)

File: 2025_07_23_Polystyrene_Std_scan2.csv
Created as New Dataset,Sample 879 By YargerLab Date Wednesday, July 23 2025
cm-1,A
4000.00,0.0010
3987.00,0.0010
3974.00,0.0009
3961.00,0.0008
3948.00,0.0009
3935.00,0.0009
3922.00,0.0009
3909.00,0.0009
3896.00,0.0009
3883.00,0.0009
3870.00,0.0010
3857.00,0.0010
3844.00,0.0009
3831.00,0.0009
3818.00,0.0010
3805.00,0.0011
3792.00,0.0009
3779.00,0.0009
3766.00,0.0010
3753.00,0.0010
3740.00,0.0010
3727.00,0.0009
3714.00,0.0010
3701.00,0.0009
3688.00,0.0010
3675.00,0.0010
3662.00,0.0010
3649.00,0.0012
3636.00,0.0010
3623.00,0.0011
3610.00,0.0011
3597.00,0.0011
3584.00,0.0012
3571.00,0.0012
3558.00,0.0013
3545.00,0.0014
3532.00,0.0015
3519.00,0.0015
3506.00,0.0016
3493.00,0.0017
3480.00,0.0017
3467.00,0.0018
3454.00,0.0019
3441.00,0.0019
3428.00,0.0018
3415.00,0.0019
3402.00,0.0019
3389.00,0.0019
3376.00,0.0019
3363.00,0.0018
3350.00,0.0018
3337.00,0.0017
3324.00,0.0017
3311.00,0.0018
3298.00,0.0017
3285.00,0.0017
3272.00,0.0017
3259.00,0.0016
3246.00,0.0016
3233.00,0.0015
3220.00,0.0016
3207.00,0.0017
3194.00,0.0016
3181.00,0.0015
3168.00,0.0016
3155.00,0.0015
3142.00,0.0013
3129.00,0.0013
3116.00,0.0018
3103.00,0.0035
3090.00,0.0052
3077.00,0.0068
3064.00,0.0104
3051.00,0.0073
3038.00,0.0086
3025.00,0.0220
3012.00,0.0064
2999.00,0.0060
2986.00,0.0037
2973.00,0.0041
2960.00,0.0061
2947.00,0.0106
2934.00,0.0209
2921.00,0.0278
2908.00,0.0212
2895.00,0.0129
2882.00,0.0092
2869.00,0.0076
2856.00,0.0112
2843.00,0.0099
2830.00,0.0037
2817.00,0.0028
2804.00,0.0025
2791.00,0.0022
2778.00,0.0021
2765.00,0.0019
2752.00,0.0018
2739.00,0.0017
2726.00,0.0018
2713.00,0.0018
2700.00,0.0018
2687.00,0.0017
2674.00,0.0017
2661.00,0.0020
2648.00,0.0022
2635.00,0.0023
2622.00,0.0021
2609.00,0.0020
2596.00,0.0017
2583.00,0.0016
2570.00,0.0016
2557.00,0.0015
2544.00,0.0013
2531.00,0.0013
2518.00,0.0013
2505.00,0.0012
2492.00,0.0012
2479.00,0.0011
2466.00,0.0010
2453.00,0.0011
2440.00,0.0011
2427.00,0.0008
2414.00,0.0007
2401.00,0.0006
2388.00,0.0005
2375.00,0.0007
2362.00,0.0009
2349.00,0.0012
2336.00,0.0015
2323.00,0.0026
2310.00,0.0019
2297.00,0.0017
2284.00,0.0020
2271.00,0.0014
2258.00,0.0012
2245.00,0.0013
2232.00,0.0010
2219.00,0.0009
2206.00,0.0008
2193.00,0.0009
2180.00,0.0007
2167.00,0.0020
2154.00,-0.0017
2141.00,-0.0013
2128.00,-0.0007
2115.00,0.0006
2102.00,0.0004
2089.00,0.0005
2076.00,0.0006
2063.00,0.0003
2050.00,0.0010
2037.00,0.0004
2024.00,-0.0004
2011.00,-0.0001
1998.00,0.0001
1985.00,0.0013
1972.00,-0.0001
1959.00,0.0006
1946.00,0.0028
1933.00,0.0013
1920.00,0.0005
1907.00,0.0004
1894.00,0.0012
1881.00,0.0022
1868.00,0.0025
1855.00,0.0012
1842.00,0.0006
1829.00,0.0011
1816.00,0.0018
1803.00,0.0033
1790.00,0.0021
1777.00,0.0019
1764.00,0.0023
1751.00,0.0037
1738.00,0.0046
1725.00,0.0039
1712.00,0.0033
1699.00,0.0032
1686.00,0.0038
1673.00,0.0046
1660.00,0.0043
1647.00,0.0036
1634.00,0.0031
1621.00,0.0032
1608.00,0.0094
1595.00,0.0109
1582.00,0.0089
1569.00,0.0028
1556.00,0.0027
1543.00,0.0036
1530.00,0.0024
1517.00,0.0021
1504.00,0.0047
1491.00,0.0441
1478.00,0.0063
1465.00,0.0069
1452.00,0.0520
1439.00,0.0199
1426.00,0.0069
1413.00,0.0052
1400.00,0.0049
1387.00,0.0079
1374.00,0.0121
1361.00,0.0114
1348.00,0.0102
1335.00,0.0092
1322.00,0.0097
1309.00,0.0097
1296.00,0.0083
1283.00,0.0076
1270.00,0.0061
1257.00,0.0056
1244.00,0.0058
1231.00,0.0056
1218.00,0.0058
1205.00,0.0071
1192.00,0.0085
1179.00,0.0106
1166.00,0.0068
1153.00,0.0108
1140.00,0.0051
1127.00,0.0048
1114.00,0.0063
1101.00,0.0064
1088.00,0.0078
1075.00,0.0121
1062.00,0.0118
1049.00,0.0081
1036.00,0.0115
1023.00,0.0182
1010.00,0.0102
997.00,0.0081
984.00,0.0092
971.00,0.0091
958.00,0.0087
945.00,0.0085
932.00,0.0063
919.00,0.0074
906.00,0.0169
893.00,0.0067
880.00,0.0049
867.00,0.0044
854.00,0.0049
841.00,0.0091
828.00,0.0043
815.00,0.0042
802.00,0.0048
789.00,0.0088
776.00,0.0221
763.00,0.0559
750.00,0.0709
737.00,0.0316
724.00,0.0089
711.00,0.0204
698.00,0.1662
685.00,0.0652
672.00,0.0315
659.00,0.0198
646.00,0.0135
633.00,0.0146
620.00,0.0170
607.00,0.0137
594.00,0.0149
581.00,0.0187
568.00,0.0298
555.00,0.0419
542.00,0.0634
529.00,0.0453
516.00,0.0239
503.00,0.0167
490.00,0.0128
477.00,0.0116
464.00,0.0101
451.00,0.0100
438.00,0.0094
425.00,0.0101
412.00,0.0098
400.00,0.0099

File: 2025_07_23_Polystyrene_Std_scan3.csv
Created as New Dataset,Sample 880 By YargerLab Date Wednesday, July 23 2025
cm-1,A
4000.00,0.0009
3987.00,0.0008
3974.00,0.0008
3961.00,0.0007
3948.00,0.0007
3935.00,0.0008
3922.00,0.0008
3909.00,0.0007
3896.00,0.0008
3883.00,0.0006
3870.00,0.0008
3857.00,0.0009
3844.00,0.0008
3831.00,0.0008
3818.00,0.0009
3805.00,0.0009
3792.00,0.0008
3779.00,0.0008
3766.00,0.0009
3753.00,0.0010
3740.00,0.0008
3727.00,0.0007
3714.00,0.0007
3701.00,0.0007
3688.00,0.0007
3675.00,0.0009
3662.00,0.0008
3649.00,0.0010
3636.00,0.0008
3623.00,0.0008
3610.00,0.0009
3597.00,0.0009
3584.00,0.0010
3571.00,0.0009
3558.00,0.0011
3545.00,0.0012
3532.00,0.0013
3519.00,0.0014
3506.00,0.0013
3493.00,0.0014
3480.00,0.0014
3467.00,0.0015
3454.00,0.0015
3441.00,0.0016
3428.00,0.0016
3415.00,0.0015
3402.00,0.0015
3389.00,0.0016
3376.00,0.0016
3363.00,0.0015
3350.00,0.0014
3337.00,0.0014
3324.00,0.0014
3311.00,0.0015
3298.00,0.0014
3285.00,0.0014
3272.00,0.0013
3259.00,0.0013
3246.00,0.0013
3233.00,0.0012
3220.00,0.0012
3207.00,0.0014
3194.00,0.0013
3181.00,0.0012
3168.00,0.0013
3155.00,0.0012
3142.00,0.0011
3129.00,0.0011
3116.00,0.0016
3103.00,0.0033
3090.00,0.0051
3077.00,0.0067
3064.00,0.0104
3051.00,0.0071
3038.00,0.0085
3025.00,0.0221
3012.00,0.0061
2999.00,0.0059
2986.00,0.0034
2973.00,0.0036
2960.00,0.0055
2947.00,0.0103
2934.00,0.0206
2921.00,0.0275
2908.00,0.0208
2895.00,0.0125
2882.00,0.0088
2869.00,0.0071
2856.00,0.0108
2843.00,0.0096
2830.00,0.0035
2817.00,0.0026
2804.00,0.0023
2791.00,0.0020
2778.00,0.0020
2765.00,0.0017
2752.00,0.0017
2739.00,0.0016
2726.00,0.0017
2713.00,0.0016
2700.00,0.0016
2687.00,0.0016
2674.00,0.0016
2661.00,0.0019
2648.00,0.0021
2635.00,0.0022
2622.00,0.0020
2609.00,0.0018
2596.00,0.0017
2583.00,0.0015
2570.00,0.0013
2557.00,0.0013
2544.00,0.0012
2531.00,0.0012
2518.00,0.0013
2505.00,0.0012
2492.00,0.0010
2479.00,0.0010
2466.00,0.0010
2453.00,0.0010
2440.00,0.0009
2427.00,0.0007
2414.00,0.0006
2401.00,0.0006
2388.00,0.0006
2375.00,0.0007
2362.00,0.0009
2349.00,0.0011
2336.00,0.0015
2323.00,0.0026
2310.00,0.0018
2297.00,0.0017
2284.00,0.0020
2271.00,0.0013
2258.00,0.0012
2245.00,0.0011
2232.00,0.0007
2219.00,0.0010
2206.00,0.0007
2193.00,0.0011
2180.00,0.0007
2167.00,0.0014
2154.00,-0.0022
2141.00,-0.0009
2128.00,-0.0010
2115.00,0.0004
2102.00,0.0005
2089.00,0.0004
2076.00,0.0004
2063.00,0.0000
2050.00,0.0007
2037.00,0.0004
2024.00,-0.0007
2011.00,-0.0007
1998.00,-0.0002
1985.00,0.0015
1972.00,-0.0001
1959.00,0.0005
1946.00,0.0028
1933.00,0.0014
1920.00,0.0004
1907.00,0.0002
1894.00,0.0011
1881.00,0.0021
1868.00,0.0025
1855.00,0.0011
1842.00,0.0006
1829.00,0.0011
1816.00,0.0018
1803.00,0.0032
1790.00,0.0020
1777.00,0.0018
1764.00,0.0023
1751.00,0.0036
1738.00,0.0044
1725.00,0.0037
1712.00,0.0030
1699.00,0.0028
1686.00,0.0032
1673.00,0.0038
1660.00,0.0035
1647.00,0.0030
1634.00,0.0027
1621.00,0.0029
1608.00,0.0093
1595.00,0.0108
1582.00,0.0088
1569.00,0.0027
1556.00,0.0026
1543.00,0.0036
1530.00,0.0024
1517.00,0.0021
1504.00,0.0049
1491.00,0.0449
1478.00,0.0063
1465.00,0.0066
1452.00,0.0529
1439.00,0.0196
1426.00,0.0065
1413.00,0.0049
1400.00,0.0047
1387.00,0.0077
1374.00,0.0119
1361.00,0.0113
1348.00,0.0101
1335.00,0.0092
1322.00,0.0096
1309.00,0.0098
1296.00,0.0081
1283.00,0.0074
1270.00,0.0059
1257.00,0.0054
1244.00,0.0056
1231.00,0.0055
1218.00,0.0056
1205.00,0.0070
1192.00,0.0085
1179.00,0.0107
1166.00,0.0067
1153.00,0.0108
1140.00,0.0050
1127.00,0.0048
1114.00,0.0062
1101.00,0.0062
1088.00,0.0075
1075.00,0.0121
1062.00,0.0119
1049.00,0.0082
1036.00,0.0115
1023.00,0.0185
1010.00,0.0103
997.00,0.0082
984.00,0.0094
971.00,0.0093
958.00,0.0089
945.00,0.0087
932.00,0.0064
919.00,0.0077
906.00,0.0174
893.00,0.0069
880.00,0.0050
867.00,0.0045
854.00,0.0050
841.00,0.0093
828.00,0.0044
815.00,0.0042
802.00,0.0047
789.00,0.0093
776.00,0.0231
763.00,0.0583
750.00,0.0742
737.00,0.0328
724.00,0.0093
711.00,0.0213
698.00,0.1773
685.00,0.0694
672.00,0.0331
659.00,0.0206
646.00,0.0141
633.00,0.0154
620.00,0.0179
607.00,0.0142
594.00,0.0156
581.00,0.0196
568.00,0.0313
555.00,0.0444
542.00,0.0674
529.00,0.0484
516.00,0.0254
503.00,0.0175
490.00,0.0141
477.00,0.0124
464.00,0.0104
451.00,0.0101
438.00,0.0097
425.00,0.0095
412.00,0.0091
400.00,0.0103

File: 2025_07_24_Polystyrene_Std_scan1.csv
Created as New Dataset,Sample 905 By YargerLab Date Thursday, July 24 2025
cm-1,A
4000.00,0.0003
3987.00,0.0002
3974.00,0.0002
3961.00,0.0002
3948.00,0.0002
3935.00,0.0003
3922.00,0.0002
3909.00,0.0002
3896.00,0.0002
3883.00,0.0003
3870.00,0.0003
3857.00,0.0004
3844.00,0.0004
3831.00,0.0004
3818.00,0.0005
3805.00,0.0004
3792.00,0.0003
3779.00,0.0003
3766.00,0.0004
3753.00,0.0006
3740.00,0.0005
3727.00,0.0004
3714.00,0.0004
3701.00,0.0003
3688.00,0.0004
3675.00,0.0005
3662.00,0.0003
3649.00,0.0005
3636.00,0.0003
3623.00,0.0003
3610.00,0.0003
3597.00,0.0003
3584.00,0.0003
3571.00,0.0003
3558.00,0.0004
3545.00,0.0005
3532.00,0.0006
3519.00,0.0006
3506.00,0.0007
3493.00,0.0007
3480.00,0.0008
3467.00,0.0008
3454.00,0.0008
3441.00,0.0009
3428.00,0.0008
3415.00,0.0008
3402.00,0.0008
3389.00,0.0008
3376.00,0.0009
3363.00,0.0009
3350.00,0.0008
3337.00,0.0009
3324.00,0.0008
3311.00,0.0009
3298.00,0.0008
3285.00,0.0009
3272.00,0.0008
3259.00,0.0008
3246.00,0.0008
3233.00,0.0007
3220.00,0.0007
3207.00,0.0008
3194.00,0.0008
3181.00,0.0007
3168.00,0.0007
3155.00,0.0007
3142.00,0.0006
3129.00,0.0006
3116.00,0.0009
3103.00,0.0021
3090.00,0.0030
3077.00,0.0044
3064.00,0.0065
3051.00,0.0047
3038.00,0.0052
3025.00,0.0146
3012.00,0.0041
2999.00,0.0040
2986.00,0.0022
2973.00,0.0026
2960.00,0.0040
2947.00,0.0069
2934.00,0.0137
2921.00,0.0187
2908.00,0.0143
2895.00,0.0086
2882.00,0.0060
2869.00,0.0049
2856.00,0.0073
2843.00,0.0066
2830.00,0.0022
2817.00,0.0015
2804.00,0.0013
2791.00,0.0011
2778.00,0.0010
2765.00,0.0009
2752.00,0.0008
2739.00,0.0008
2726.00,0.0009
2713.00,0.0009
2700.00,0.0008
2687.00,0.0008
2674.00,0.0008
2661.00,0.0012
2648.00,0.0013
2635.00,0.0014
2622.00,0.0012
2609.00,0.0012
2596.00,0.0010
2583.00,0.0009
2570.00,0.0007
2557.00,0.0007
2544.00,0.0005
2531.00,0.0006
2518.00,0.0006
2505.00,0.0005
2492.00,0.0005
2479.00,0.0005
2466.00,0.0004
2453.00,0.0005
2440.00,0.0004
2427.00,0.0002
2414.00,0.0002
2401.00,0.0000
2388.00,-0.0000
2375.00,-0.0000
2362.00,0.0002
2349.00,0.0003
2336.00,0.0006
2323.00,0.0016
2310.00,0.0009
2297.00,0.0011
2284.00,0.0013
2271.00,0.0008
2258.00,0.0007
2245.00,0.0007
2232.00,0.0005
2219.00,0.0006
2206.00,0.0004
2193.00,0.0005
2180.00,0.0002
2167.00,0.0011
2154.00,-0.0020
2141.00,-0.0015
2128.00,-0.0012
2115.00,0.0000
2102.00,0.0001
2089.00,-0.0001
2076.00,0.0002
2063.00,-0.0000
2050.00,0.0008
2037.00,0.0006
2024.00,-0.0006
2011.00,-0.0004
1998.00,-0.0004
1985.00,0.0005
1972.00,-0.0005
1959.00,-0.0001
1946.00,0.0013
1933.00,0.0004
1920.00,-0.0000
1907.00,-0.0001
1894.00,0.0003
1881.00,0.0012
1868.00,0.0014
1855.00,0.0003
1842.00,0.0000
1829.00,0.0004
1816.00,0.0008
1803.00,0.0019
1790.00,0.0011
1777.00,0.0009
1764.00,0.0012
1751.00,0.0022
1738.00,0.0029
1725.00,0.0022
1712.00,0.0020
1699.00,0.0022
1686.00,0.0033
1673.00,0.0038
1660.00,0.0036
1647.00,0.0026
1634.00,0.0020
1621.00,0.0019
1608.00,0.0057
1595.00,0.0073
1582.00,0.0058
1569.00,0.0016
1556.00,0.0014
1543.00,0.0022
1530.00,0.0014
1517.00,0.0012
1504.00,0.0030
1491.00,0.0311
1478.00,0.0042
1465.00,0.0048
1452.00,0.0351
1439.00,0.0141
1426.00,0.0049
1413.00,0.0034
1400.00,0.0031
1387.00,0.0052
1374.00,0.0082
1361.00,0.0076
1348.00,0.0069
1335.00,0.0061
1322.00,0.0066
1309.00,0.0066
1296.00,0.0057
1283.00,0.0052
1270.00,0.0041
1257.00,0.0036
1244.00,0.0037
1231.00,0.0036
1218.00,0.0038
1205.00,0.0046
1192.00,0.0057
1179.00,0.0073
1166.00,0.0046
1153.00,0.0076
1140.00,0.0034
1127.00,0.0032
1114.00,0.0043
1101.00,0.0044
1088.00,0.0054
1075.00,0.0087
1062.00,0.0086
1049.00,0.0057
1036.00,0.0080
1023.00,0.0131
1010.00,0.0072
997.00,0.0056
984.00,0.0064
971.00,0.0064
958.00,0.0061
945.00,0.0057
932.00,0.0044
919.00,0.0049
906.00,0.0120
893.00,0.0045
880.00,0.0030
867.00,0.0027
854.00,0.0030
841.00,0.0061
828.00,0.0027
815.00,0.0024
802.00,0.0029
789.00,0.0057
776.00,0.0149
763.00,0.0385
750.00,0.0491
737.00,0.0220
724.00,0.0057
711.00,0.0136
698.00,0.1140
685.00,0.0456
672.00,0.0215
659.00,0.0132
646.00,0.0086
633.00,0.0094
620.00,0.0111
607.00,0.0087
594.00,0.0098
581.00,0.0126
568.00,0.0202
555.00,0.0291
542.00,0.0443
529.00,0.0325
516.00,0.0165
503.00,0.0110
490.00,0.0089
477.00,0.0074
464.00,0.0069
451.00,0.0062
438.00,0.0062
425.00,0.0061
412.00,0.0060
400.00,0.0021

File: 2025_07_24_Polystyrene_Std_scan2.csv
Created as New Dataset,Sample 906 By YargerLab Date Thursday, July 24 2025
cm-1,A
4000.00,0.0005
3987.00,0.0004
3974.00,0.0005
3961.00,0.0004
3948.00,0.0004
3935.00,0.0004
3922.00,0.0005
3909.00,0.0004
3896.00,0.0005
3883.00,0.0005
3870.00,0.0005
3857.00,0.0006
3844.00,0.0005
3831.00,0.0005
3818.00,0.0007
3805.00,0.0006
3792.00,0.0005
3779.00,0.0005
3766.00,0.0006
3753.00,0.0007
3740.00,0.0006
3727.00,0.0005
3714.00,0.0006
3701.00,0.0005
3688.00,0.0005
3675.00,0.0006
3662.00,0.0005
3649.00,0.0006
3636.00,0.0004
3623.00,0.0005
3610.00,0.0005
3597.00,0.0004
3584.00,0.0004
3571.00,0.0005
3558.00,0.0005
3545.00,0.0006
3532.00,0.0007
3519.00,0.0008
3506.00,0.0008
3493.00,0.0008
3480.00,0.0009
3467.00,0.0009
3454.00,0.0009
3441.00,0.0010
3428.00,0.0009
3415.00,0.0009
3402.00,0.0009
3389.00,0.0009
3376.00,0.0009
3363.00,0.0009
3350.00,0.0009
3337.00,0.0009
3324.00,0.0008
3311.00,0.0009
3298.00,0.0008
3285.00,0.0008
3272.00,0.0008
3259.00,0.0008
3246.00,0.0008
3233.00,0.0007
3220.00,0.0008
3207.00,0.0008
3194.00,0.0008
3181.00,0.0007
3168.00,0.0008
3155.00,0.0007
3142.00,0.0007
3129.00,0.0008
3116.00,0.0010
3103.00,0.0024
3090.00,0.0033
3077.00,0.0049
3064.00,0.0072
3051.00,0.0052
3038.00,0.0058
3025.00,0.0162
3012.00,0.0046
2999.00,0.0044
2986.00,0.0025
2973.00,0.0027
2960.00,0.0040
2947.00,0.0072
2934.00,0.0145
2921.00,0.0200
2908.00,0.0154
2895.00,0.0093
2882.00,0.0064
2869.00,0.0052
2856.00,0.0077
2843.00,0.0071
2830.00,0.0024
2817.00,0.0018
2804.00,0.0016
2791.00,0.0013
2778.00,0.0012
2765.00,0.0011
2752.00,0.0011
2739.00,0.0010
2726.00,0.0011
2713.00,0.0011
2700.00,0.0011
2687.00,0.0010
2674.00,0.0010
2661.00,0.0014
2648.00,0.0016
2635.00,0.0016
2622.00,0.0014
2609.00,0.0014
2596.00,0.0013
2583.00,0.0012
2570.00,0.0010
2557.00,0.0009
2544.00,0.0008
2531.00,0.0008
2518.00,0.0008
2505.00,0.0008
2492.00,0.0008
2479.00,0.0007
2466.00,0.0006
2453.00,0.0007
2440.00,0.0006
2427.00,0.0005
2414.00,0.0004
2401.00,0.0003
2388.00,0.0002
2375.00,0.0001
2362.00,0.0003
2349.00,0.0004
2336.00,0.0008
2323.00,0.0017
2310.00,0.0010
2297.00,0.0012
2284.00,0.0015
2271.00,0.0010
2258.00,0.0010
2245.00,0.0008
2232.00,0.0007
2219.00,0.0008
2206.00,0.0007
2193.00,0.0006
2180.00,0.0003
2167.00,0.0015
2154.00,-0.0017
2141.00,-0.0014
2128.00,-0.0009
2115.00,0.0003
2102.00,0.0002
2089.00,0.0000
2076.00,0.0004
2063.00,-0.0000
2050.00,0.0010
2037.00,0.0005
2024.00,-0.0007
2011.00,-0.0001
1998.00,-0.0001
1985.00,0.0008
1972.00,-0.0004
1959.00,0.0004
1946.00,0.0016
1933.00,0.0006
1920.00,0.0003
1907.00,0.0001
1894.00,0.0007
1881.00,0.0015
1868.00,0.0017
1855.00,0.0007
1842.00,0.0002
1829.00,0.0005
1816.00,0.0011
1803.00,0.0023
1790.00,0.0014
1777.00,0.0012
1764.00,0.0015
1751.00,0.0025
1738.00,0.0034
1725.00,0.0026
1712.00,0.0021
1699.00,0.0019
1686.00,0.0022
1673.00,0.0027
1660.00,0.0026
1647.00,0.0022
1634.00,0.0019
1621.00,0.0020
1608.00,0.0063
1595.00,0.0081
1582.00,0.0064
1569.00,0.0018
1556.00,0.0017
1543.00,0.0024
1530.00,0.0016
1517.00,0.0014
1504.00,0.0033
1491.00,0.0348
1478.00,0.0045
1465.00,0.0049
1452.00,0.0392
1439.00,0.0151
1426.00,0.0048
1413.00,0.0035
1400.00,0.0034
1387.00,0.0057
1374.00,0.0089
1361.00,0.0083
1348.00,0.0076
1335.00,0.0068
1322.00,0.0072
1309.00,0.0072
1296.00,0.0059
1283.00,0.0054
1270.00,0.0043
1257.00,0.0040
1244.00,0.0042
1231.00,0.0040
1218.00,0.0041
1205.00,0.0051
1192.00,0.0063
1179.00,0.0082
1166.00,0.0052
1153.00,0.0085
1140.00,0.0039
1127.00,0.0035
1114.00,0.0048
1101.00,0.0048
1088.00,0.0060
1075.00,0.0096
1062.00,0.0094
1049.00,0.0063
1036.00,0.0088
1023.00,0.0147
1010.00,0.0080
997.00,0.0063
984.00,0.0072
971.00,0.0072
958.00,0.0069
945.00,0.0065
932.00,0.0049
919.00,0.0057
906.00,0.0135
893.00,0.0050
880.00,0.0035
867.00,0.0030
854.00,0.0034
841.00,0.0069
828.00,0.0030
815.00,0.0028
802.00,0.0033
789.00,0.0066
776.00,0.0170
763.00,0.0443
750.00,0.0567
737.00,0.0250
724.00,0.0064
711.00,0.0155
698.00,0.1364
685.00,0.0529
672.00,0.0247
659.00,0.0149
646.00,0.0097
633.00,0.0106
620.00,0.0125
607.00,0.0098
594.00,0.0109
581.00,0.0143
568.00,0.0232
555.00,0.0333
542.00,0.0514
529.00,0.0370
516.00,0.0188
503.00,0.0123
490.00,0.0100
477.00,0.0087
464.00,0.0079
451.00,0.0067
438.00,0.0074
425.00,0.0061
412.00,0.0057
400.00,0.0021

File: 2025_07_24_Polystyrene_Std_scan3.csv
Created as New Dataset,Sample 907 By YargerLab Date Thursday, July 24 2025
cm-1,A
4000.00,0.0006
3987.00,0.0005
3974.00,0.0006
3961.00,0.0005
3948.00,0.0005
3935.00,0.0005
3922.00,0.0005
3909.00,0.0005
3896.00,0.0005
3883.00,0.0005
3870.00,0.0005
3857.00,0.0006
3844.00,0.0005
3831.00,0.0006
3818.00,0.0006
3805.00,0.0006
3792.00,0.0006
3779.00,0.0005
3766.00,0.0006
3753.00,0.0007
3740.00,0.0006
3727.00,0.0005
3714.00,0.0006
3701.00,0.0005
3688.00,0.0005
3675.00,0.0006
3662.00,0.0006
3649.00,0.0006
3636.00,0.0005
3623.00,0.0005
3610.00,0.0004
3597.00,0.0005
3584.00,0.0005
3571.00,0.0005
3558.00,0.0006
3545.00,0.0006
3532.00,0.0007
3519.00,0.0008
3506.00,0.0008
3493.00,0.0008
3480.00,0.0009
3467.00,0.0009
3454.00,0.0009
3441.00,0.0010
3428.00,0.0008
3415.00,0.0008
3402.00,0.0009
3389.00,0.0008
3376.00,0.0008
3363.00,0.0008
3350.00,0.0008
3337.00,0.0008
3324.00,0.0008
3311.00,0.0008
3298.00,0.0007
3285.00,0.0007
3272.00,0.0008
3259.00,0.0007
3246.00,0.0007
3233.00,0.0007
3220.00,0.0006
3207.00,0.0007
3194.00,0.0007
3181.00,0.0007
3168.00,0.0008
3155.00,0.0007
3142.00,0.0007
3129.00,0.0007
3116.00,0.0010
3103.00,0.0024
3090.00,0.0034
3077.00,0.0051
3064.00,0.0074
3051.00,0.0054
3038.00,0.0059
3025.00,0.0166
3012.00,0.0046
2999.00,0.0045
2986.00,0.0024
2973.00,0.0027
2960.00,0.0039
2947.00,0.0072
2934.00,0.0147
2921.00,0.0203
2908.00,0.0155
2895.00,0.0092
2882.00,0.0064
2869.00,0.0050
2856.00,0.0077
2843.00,0.0071
2830.00,0.0024
2817.00,0.0018
2804.00,0.0016
2791.00,0.0013
2778.00,0.0012
2765.00,0.0011
2752.00,0.0011
2739.00,0.0010
2726.00,0.0011
2713.00,0.0011
2700.00,0.0011
2687.00,0.0010
2674.00,0.0011
2661.00,0.0014
2648.00,0.0016
2635.00,0.0016
2622.00,0.0014
2609.00,0.0015
2596.00,0.0013
2583.00,0.0012
2570.00,0.0010
2557.00,0.0009
2544.00,0.0008
2531.00,0.0008
2518.00,0.0009
2505.00,0.0008
2492.00,0.0007
2479.00,0.0007
2466.00,0.0007
2453.00,0.0008
2440.00,0.0007
2427.00,0.0005
2414.00,0.0004
2401.00,0.0003
2388.00,0.0002
2375.00,0.0003
2362.00,0.0004
2349.00,0.0005
2336.00,0.0009
2323.00,0.0019
2310.00,0.0012
2297.00,0.0013
2284.00,0.0015
2271.00,0.0011
2258.00,0.0011
2245.00,0.0010
2232.00,0.0006
2219.00,0.0007
2206.00,0.0007
2193.00,0.0010
2180.00,0.0005
2167.00,0.0016
2154.00,-0.0018
2141.00,-0.0012
2128.00,-0.0009
2115.00,0.0003
2102.00,0.0002
2089.00,0.0002
2076.00,0.0004
2063.00,0.0002
2050.00,0.0011
2037.00,0.0008
2024.00,-0.0002
2011.00,-0.0001
1998.00,-0.0002
1985.00,0.0010
1972.00,-0.0003
1959.00,0.0003
1946.00,0.0016
1933.00,0.0007
1920.00,0.0003
1907.00,0.0002
1894.00,0.0007
1881.00,0.0016
1868.00,0.0019
1855.00,0.0007
1842.00,0.0003
1829.00,0.0006
1816.00,0.0012
1803.00,0.0024
1790.00,0.0015
1777.00,0.0012
1764.00,0.0016
1751.00,0.0026
1738.00,0.0031
1725.00,0.0024
1712.00,0.0019
1699.00,0.0016
1686.00,0.0016
1673.00,0.0021
1660.00,0.0021
1647.00,0.0018
1634.00,0.0016
1621.00,0.0019
1608.00,0.0062
1595.00,0.0081
1582.00,0.0064
1569.00,0.0017
1556.00,0.0016
1543.00,0.0024
1530.00,0.0016
1517.00,0.0015
1504.00,0.0032
1491.00,0.0351
1478.00,0.0045
1465.00,0.0045
1452.00,0.0391
1439.00,0.0147
1426.00,0.0044
1413.00,0.0033
1400.00,0.0032
1387.00,0.0055
1374.00,0.0087
1361.00,0.0082
1348.00,0.0074
1335.00,0.0066
1322.00,0.0069
1309.00,0.0070
1296.00,0.0056
1283.00,0.0050
1270.00,0.0040
1257.00,0.0037
1244.00,0.0039
1231.00,0.0038
1218.00,0.0039
1205.00,0.0049
1192.00,0.0061
1179.00,0.0080
1166.00,0.0049
1153.00,0.0083
1140.00,0.0037
1127.00,0.0033
1114.00,0.0046
1101.00,0.0047
1088.00,0.0058
1075.00,0.0095
1062.00,0.0093
1049.00,0.0061
1036.00,0.0086
1023.00,0.0144
1010.00,0.0078
997.00,0.0061
984.00,0.0070
971.00,0.0070
958.00,0.0067
945.00,0.0064
932.00,0.0047
919.00,0.0055
906.00,0.0133
893.00,0.0048
880.00,0.0034
867.00,0.0029
854.00,0.0032
841.00,0.0066
828.00,0.0029
815.00,0.0026
802.00,0.0032
789.00,0.0062
776.00,0.0167
763.00,0.0431
750.00,0.0550
737.00,0.0240
724.00,0.0062
711.00,0.0149
698.00,0.1295
685.00,0.0503
672.00,0.0235
659.00,0.0140
646.00,0.0090
633.00,0.0100
620.00,0.0119
607.00,0.0094
594.00,0.0104
581.00,0.0134
568.00,0.0221
555.00,0.0322
542.00,0.0492
529.00,0.0350
516.00,0.0176
503.00,0.0122
490.00,0.0092
477.00,0.0078
464.00,0.0071
451.00,0.0064
438.00,0.0066
425.00,0.0060
412.00,0.0062
400.00,0.0045

File: 2025_07_26_Polystyrene_Std_scan1.csv
Created as New Dataset,Sample 917 By YargerLab Date Thursday, July 24 2025
cm-1,A
4000.00,0.0006
3987.00,0.0006
3974.00,0.0006
3961.00,0.0006
3948.00,0.0005
3935.00,0.0006
3922.00,0.0005
3909.00,0.0005
3896.00,0.0005
3883.00,0.0004
3870.00,0.0004
3857.00,0.0005
3844.00,0.0005
3831.00,0.0005
3818.00,0.0006
3805.00,0.0005
3792.00,0.0006
3779.00,0.0007
3766.00,0.0007
3753.00,0.0005
3740.00,0.0004
3727.00,0.0005
3714.00,0.0004
3701.00,0.0005
3688.00,0.0004
3675.00,0.0004
3662.00,0.0005
3649.00,0.0005
3636.00,0.0005
3623.00,0.0005
3610.00,0.0005
3597.00,0.0005
3584.00,0.0006
3571.00,0.0007
3558.00,0.0007
3545.00,0.0007
3532.00,0.0008
3519.00,0.0009
3506.00,0.0009
3493.00,0.0010
3480.00,0.0010
3467.00,0.0011
3454.00,0.0011
3441.00,0.0011
3428.00,0.0012
3415.00,0.0012
3402.00,0.0011
3389.00,0.0012
3376.00,0.0012
3363.00,0.0012
3350.00,0.0012
3337.00,0.0012
3324.00,0.0012
3311.00,0.0012
3298.00,0.0012
3285.00,0.0011
3272.00,0.0011
3259.00,0.0011
3246.00,0.0011
3233.00,0.0011
3220.00,0.0010
3207.00,0.0011
3194.00,0.0011
3181.00,0.0010
3168.00,0.0010
3155.00,0.0010
3142.00,0.0009
3129.00,0.0009
3116.00,0.0014
3103.00,0.0032
3090.00,0.0046
3077.00,0.0066
3064.00,0.0099
3051.00,0.0071
3038.00,0.0080
3025.00,0.0222
3012.00,0.0060
2999.00,0.0055
2986.00,0.0027
2973.00,0.0033
2960.00,0.0054
2947.00,0.0099
2934.00,0.0202
2921.00,0.0275
2908.00,0.0209
2895.00,0.0125
2882.00,0.0086
2869.00,0.0070
2856.00,0.0106
2843.00,0.0097
2830.00,0.0032
2817.00,0.0023
2804.00,0.0020
2791.00,0.0017
2778.00,0.0016
2765.00,0.0014
2752.00,0.0013
2739.00,0.0013
2726.00,0.0013
2713.00,0.0013
2700.00,0.0013
2687.00,0.0013
2674.00,0.0013
2661.00,0.0016
2648.00,0.0017
2635.00,0.0018
2622.00,0.0017
2609.00,0.0016
2596.00,0.0014
2583.00,0.0013
2570.00,0.0012
2557.00,0.0011
2544.00,0.0010
2531.00,0.0009
2518.00,0.0010
2505.00,0.0009
2492.00,0.0009
2479.00,0.0007
2466.00,0.0007
2453.00,0.0008
2440.00,0.0007
2427.00,0.0005
2414.00,0.0004
2401.00,0.0002
2388.00,0.0003
2375.00,0.0001
2362.00,0.0003
2349.00,0.0005
2336.00,0.0009
2323.00,0.0020
2310.00,0.0014
2297.00,0.0013
2284.00,0.0015
2271.00,0.0011
2258.00,0.0011
2245.00,0.0008
2232.00,0.0008
2219.00,0.0006
2206.00,0.0006
2193.00,0.0009
2180.00,-0.0001
2167.00,0.0016
2154.00,-0.0017
2141.00,-0.0015
2128.00,-0.0011
2115.00,0.0002
2102.00,0.0001
2089.00,0.0001
2076.00,0.0001
2063.00,0.0000
2050.00,0.0006
2037.00,0.0001
2024.00,-0.0005
2011.00,-0.0004
1998.00,-0.0002
1985.00,0.0008
1972.00,-0.0002
1959.00,0.0004
1946.00,0.0022
1933.00,0.0009
1920.00,0.0001
1907.00,0.0001
1894.00,0.0008
1881.00,0.0018
1868.00,0.0023
1855.00,0.0008
1842.00,0.0003
1829.00,0.0007
1816.00,0.0015
1803.00,0.0028
1790.00,0.0017
1777.00,0.0014
1764.00,0.0018
1751.00,0.0033
1738.00,0.0040
1725.00,0.0033
1712.00,0.0026
1699.00,0.0024
1686.00,0.0028
1673.00,0.0031
1660.00,0.0029
1647.00,0.0022
1634.00,0.0019
1621.00,0.0022
1608.00,0.0079
1595.00,0.0101
1582.00,0.0079
1569.00,0.0021
1556.00,0.0020
1543.00,0.0029
1530.00,0.0019
1517.00,0.0017
1504.00,0.0040
1491.00,0.0429
1478.00,0.0054
1465.00,0.0060
1452.00,0.0485
1439.00,0.0183
1426.00,0.0058
1413.00,0.0042
1400.00,0.0038
1387.00,0.0067
1374.00,0.0106
1361.00,0.0098
1348.00,0.0088
1335.00,0.0079
1322.00,0.0082
1309.00,0.0083
1296.00,0.0069
1283.00,0.0062
1270.00,0.0050
1257.00,0.0045
1244.00,0.0047
1231.00,0.0045
1218.00,0.0046
1205.00,0.0059
1192.00,0.0072
1179.00,0.0094
1166.00,0.0058
1153.00,0.0097
1140.00,0.0041
1127.00,0.0041
1114.00,0.0055
1101.00,0.0055
1088.00,0.0068
1075.00,0.0112
1062.00,0.0107
1049.00,0.0070
1036.00,0.0101
1023.00,0.0169
1010.00,0.0090
997.00,0.0070
984.00,0.0080
971.00,0.0077
958.00,0.0074
945.00,0.0072
932.00,0.0051
919.00,0.0061
906.00,0.0148
893.00,0.0052
880.00,0.0036
867.00,0.0030
854.00,0.0035
841.00,0.0073
828.00,0.0029
815.00,0.0030
802.00,0.0034
789.00,0.0071
776.00,0.0188
763.00,0.0486
750.00,0.0614
737.00,0.0270
724.00,0.0068
711.00,0.0172
698.00,0.1388
685.00,0.0515
672.00,0.0242
659.00,0.0146
646.00,0.0098
633.00,0.0106
620.00,0.0127
607.00,0.0100
594.00,0.0109
581.00,0.0141
568.00,0.0238
555.00,0.0336
542.00,0.0516
529.00,0.0364
516.00,0.0184
503.00,0.0119
490.00,0.0090
477.00,0.0082
464.00,0.0073
451.00,0.0067
438.00,0.0063
425.00,0.0062
412.00,0.0068
400.00,0.0047