Folder: Data/FTIR/Olivia (part 2)

File: 2025_06_06_Crystalline_Felodipine_Scan1.csv
Created as New Dataset,Sample 623 By YargerLab Date Friday, June 06 2025
cm-1,A
4000.00,0.0191
3987.00,0.0192
3974.00,0.0191
3961.00,0.0191
3948.00,0.0191
3935.00,0.0191
3922.00,0.0192
3909.00,0.0191
3896.00,0.0189
3883.00,0.0190
3870.00,0.0189
3857.00,0.0189
3844.00,0.0188
3831.00,0.0188
3818.00,0.0188
3805.00,0.0188
3792.00,0.0187
3779.00,0.0187
3766.00,0.0186
3753.00,0.0186
3740.00,0.0186
3727.00,0.0185
3714.00,0.0184
3701.00,0.0182
3688.00,0.0181
3675.00,0.0175
3662.00,0.0170
3649.00,0.0172
3636.00,0.0172
3623.00,0.0177
3610.00,0.0178
3597.00,0.0177
3584.00,0.0176
3571.00,0.0176
3558.00,0.0176
3545.00,0.0176
3532.00,0.0175
3519.00,0.0174
3506.00,0.0174
3493.00,0.0173
3480.00,0.0171
3467.00,0.0170
3454.00,0.0168
3441.00,0.0168
3428.00,0.0168
3415.00,0.0173
3402.00,0.0188
3389.00,0.0254
3376.00,0.0539
3363.00,0.0620
3350.00,0.0420
3337.00,0.0323
3324.00,0.0283
3311.00,0.0264
3298.00,0.0251
3285.00,0.0236
3272.00,0.0221
3259.00,0.0218
3246.00,0.0217
3233.00,0.0217
3220.00,0.0211
3207.00,0.0203
3194.00,0.0198
3181.00,0.0196
3168.00,0.0194
3155.00,0.0193
3142.00,0.0194
3129.00,0.0195
3116.00,0.0200
3103.00,0.0211
3090.00,0.0210
3077.00,0.0210
3064.00,0.0206
3051.00,0.0201
3038.00,0.0194
3025.00,0.0199
3012.00,0.0203
2999.00,0.0207
2986.00,0.0230
2973.00,0.0188
2960.00,0.0230
2947.00,0.0289
2934.00,0.0262
2921.00,0.0223
2908.00,0.0212
2895.00,0.0207
2882.00,0.0202
2869.00,0.0202
2856.00,0.0201
2843.00,0.0209
2830.00,0.0205
2817.00,0.0201
2804.00,0.0205
2791.00,0.0198
2778.00,0.0190
2765.00,0.0189
2752.00,0.0187
2739.00,0.0184
2726.00,0.0182
2713.00,0.0180
2700.00,0.0181
2687.00,0.0179
2674.00,0.0177
2661.00,0.0180
2648.00,0.0180
2635.00,0.0181
2622.00,0.0181
2609.00,0.0182
2596.00,0.0180
2583.00,0.0176
2570.00,0.0174
2557.00,0.0175
2544.00,0.0172
2531.00,0.0168
2518.00,0.0170
2505.00,0.0170
2492.00,0.0169
2479.00,0.0170
2466.00,0.0168
2453.00,0.0167
2440.00,0.0164
2427.00,0.0163
2414.00,0.0162
2401.00,0.0158
2388.00,0.0157
2375.00,0.0153
2362.00,0.0152
2349.00,0.0152
2336.00,0.0154
2323.00,0.0164
2310.00,0.0154
2297.00,0.0158
2284.00,0.0162
2271.00,0.0154
2258.00,0.0153
2245.00,0.0149
2232.00,0.0145
2219.00,0.0143
2206.00,0.0135
2193.00,0.0133
2180.00,0.0131
2167.00,0.0148
2154.00,0.0117
2141.00,0.0123
2128.00,0.0124
2115.00,0.0133
2102.00,0.0136
2089.00,0.0134
2076.00,0.0134
2063.00,0.0129
2050.00,0.0131
2037.00,0.0121
2024.00,0.0111
2011.00,0.0116
1998.00,0.0118
1985.00,0.0128
1972.00,0.0111
1959.00,0.0106
1946.00,0.0109
1933.00,0.0113
1920.00,0.0123
1907.00,0.0121
1894.00,0.0114
1881.00,0.0115
1868.00,0.0114
1855.00,0.0120
1842.00,0.0111
1829.00,0.0106
1816.00,0.0102
1803.00,0.0106
1790.00,0.0110
1777.00,0.0105
1764.00,0.0108
1751.00,0.0115
1738.00,0.0119
1725.00,0.0135
1712.00,0.0283
1699.00,0.1577
1686.00,0.1782
1673.00,0.0683
1660.00,0.0431
1647.00,0.0730
1634.00,0.0617
1621.00,0.1082
1608.00,0.0662
1595.00,0.0395
1582.00,0.0330
1569.00,0.0234
1556.00,0.0213
1543.00,0.0185
1530.00,0.0203
1517.00,0.0291
1504.00,0.0954
1491.00,0.1812
1478.00,0.0919
1465.00,0.0682
1452.00,0.0638
1439.00,0.0699
1426.00,0.0777
1413.00,0.0860
1400.00,0.0418
1387.00,0.0554
1374.00,0.0534
1361.00,0.0482
1348.00,0.0225
1335.00,0.0207
1322.00,0.0262
1309.00,0.0926
1296.00,0.0529
1283.00,0.1275
1270.00,0.1502
1257.00,0.0555
1244.00,0.0385
1231.00,0.0316
1218.00,0.0542
1205.00,0.1970
1192.00,0.1337
1179.00,0.0912
1166.00,0.0606
1153.00,0.0501
1140.00,0.1260
1127.00,0.0841
1114.00,0.1716
1101.00,0.2077
1088.00,0.1680
1075.00,0.0852
1062.00,0.1156
1049.00,0.0922
1036.00,0.1062
1023.00,0.1408
1010.00,0.0868
997.00,0.0616
984.00,0.0549
971.00,0.0551
958.00,0.0460
945.00,0.0355
932.00,0.0314
919.00,0.0292
906.00,0.0277
893.00,0.0265
880.00,0.0271
867.00,0.0485
854.00,0.0557
841.00,0.0284
828.00,0.0278
815.00,0.0278
802.00,0.1256
789.00,0.0406
776.00,0.0458
763.00,0.0464
750.00,0.0373
737.00,0.0910
724.00,0.1588
711.00,0.0404
698.00,0.0279
685.00,0.0330
672.00,0.0698
659.00,0.0330
646.00,0.0304
633.00,0.0394
620.00,0.0720
607.00,0.0584
594.00,0.0563
581.00,0.0568
568.00,0.1076
555.00,0.0962
542.00,0.0717
529.00,0.0448
516.00,0.0318
503.00,0.0260
490.00,0.0228
477.00,0.0225
464.00,0.0464
451.00,0.0287
438.00,0.0209
425.00,0.0261
412.00,0.0345
400.00,0.0353

File: 2025_06_06_Crystalline_Felodipine_Scan2.csv
Created as New Dataset,Sample 624 By YargerLab Date Friday, June 06 2025
cm-1,A
4000.00,0.0098
3987.00,0.0099
3974.00,0.0099
3961.00,0.0099
3948.00,0.0097
3935.00,0.0098
3922.00,0.0099
3909.00,0.0099
3896.00,0.0095
3883.00,0.0094
3870.00,0.0094
3857.00,0.0093
3844.00,0.0093
3831.00,0.0093
3818.00,0.0091
3805.00,0.0093
3792.00,0.0094
3779.00,0.0094
3766.00,0.0092
3753.00,0.0091
3740.00,0.0091
3727.00,0.0091
3714.00,0.0090
3701.00,0.0090
3688.00,0.0087
3675.00,0.0080
3662.00,0.0079
3649.00,0.0077
3636.00,0.0081
3623.00,0.0084
3610.00,0.0084
3597.00,0.0085
3584.00,0.0085
3571.00,0.0086
3558.00,0.0086
3545.00,0.0086
3532.00,0.0086
3519.00,0.0085
3506.00,0.0085
3493.00,0.0084
3480.00,0.0084
3467.00,0.0083
3454.00,0.0082
3441.00,0.0084
3428.00,0.0087
3415.00,0.0095
3402.00,0.0117
3389.00,0.0195
3376.00,0.0497
3363.00,0.0586
3350.00,0.0366
3337.00,0.0255
3324.00,0.0207
3311.00,0.0186
3298.00,0.0168
3285.00,0.0149
3272.00,0.0134
3259.00,0.0130
3246.00,0.0129
3233.00,0.0130
3220.00,0.0123
3207.00,0.0114
3194.00,0.0109
3181.00,0.0106
3168.00,0.0104
3155.00,0.0105
3142.00,0.0107
3129.00,0.0109
3116.00,0.0117
3103.00,0.0128
3090.00,0.0127
3077.00,0.0127
3064.00,0.0123
3051.00,0.0117
3038.00,0.0110
3025.00,0.0117
3012.00,0.0125
2999.00,0.0135
2986.00,0.0162
2973.00,0.0113
2960.00,0.0155
2947.00,0.0219
2934.00,0.0183
2921.00,0.0134
2908.00,0.0126
2895.00,0.0121
2882.00,0.0116
2869.00,0.0114
2856.00,0.0110
2843.00,0.0121
2830.00,0.0118
2817.00,0.0115
2804.00,0.0119
2791.00,0.0111
2778.00,0.0102
2765.00,0.0100
2752.00,0.0099
2739.00,0.0096
2726.00,0.0094
2713.00,0.0092
2700.00,0.0094
2687.00,0.0093
2674.00,0.0090
2661.00,0.0094
2648.00,0.0095
2635.00,0.0096
2622.00,0.0098
2609.00,0.0098
2596.00,0.0096
2583.00,0.0092
2570.00,0.0090
2557.00,0.0090
2544.00,0.0087
2531.00,0.0085
2518.00,0.0088
2505.00,0.0088
2492.00,0.0087
2479.00,0.0088
2466.00,0.0086
2453.00,0.0085
2440.00,0.0083
2427.00,0.0082
2414.00,0.0082
2401.00,0.0078
2388.00,0.0077
2375.00,0.0074
2362.00,0.0074
2349.00,0.0076
2336.00,0.0078
2323.00,0.0089
2310.00,0.0078
2297.00,0.0082
2284.00,0.0086
2271.00,0.0079
2258.00,0.0078
2245.00,0.0076
2232.00,0.0072
2219.00,0.0069
2206.00,0.0064
2193.00,0.0063
2180.00,0.0061
2167.00,0.0079
2154.00,0.0044
2141.00,0.0049
2128.00,0.0052
2115.00,0.0063
2102.00,0.0067
2089.00,0.0065
2076.00,0.0066
2063.00,0.0061
2050.00,0.0066
2037.00,0.0053
2024.00,0.0050
2011.00,0.0056
1998.00,0.0054
1985.00,0.0061
1972.00,0.0045
1959.00,0.0039
1946.00,0.0045
1933.00,0.0051
1920.00,0.0061
1907.00,0.0060
1894.00,0.0052
1881.00,0.0055
1868.00,0.0054
1855.00,0.0062
1842.00,0.0053
1829.00,0.0050
1816.00,0.0047
1803.00,0.0054
1790.00,0.0060
1777.00,0.0058
1764.00,0.0064
1751.00,0.0075
1738.00,0.0084
1725.00,0.0111
1712.00,0.0277
1699.00,0.1467
1686.00,0.1723
1673.00,0.0667
1660.00,0.0403
1647.00,0.0701
1634.00,0.0578
1621.00,0.1040
1608.00,0.0634
1595.00,0.0350
1582.00,0.0281
1569.00,0.0180
1556.00,0.0160
1543.00,0.0139
1530.00,0.0166
1517.00,0.0267
1504.00,0.0901
1491.00,0.1728
1478.00,0.0905
1465.00,0.0653
1452.00,0.0611
1439.00,0.0680
1426.00,0.0766
1413.00,0.0834
1400.00,0.0381
1387.00,0.0522
1374.00,0.0510
1361.00,0.0446
1348.00,0.0178
1335.00,0.0173
1322.00,0.0245
1309.00,0.0896
1296.00,0.0522
1283.00,0.1228
1270.00,0.1445
1257.00,0.0528
1244.00,0.0354
1231.00,0.0302
1218.00,0.0565
1205.00,0.1880
1192.00,0.1326
1179.00,0.0915
1166.00,0.0603
1153.00,0.0498
1140.00,0.1259
1127.00,0.0860
1114.00,0.1699
1101.00,0.2018
1088.00,0.1688
1075.00,0.0870
1062.00,0.1164
1049.00,0.0937
1036.00,0.1076
1023.00,0.1416
1010.00,0.0893
997.00,0.0626
984.00,0.0555
971.00,0.0559
958.00,0.0462
945.00,0.0346
932.00,0.0298
919.00,0.0273
906.00,0.0257
893.00,0.0243
880.00,0.0248
867.00,0.0475
854.00,0.0548
841.00,0.0263
828.00,0.0255
815.00,0.0256
802.00,0.1202
789.00,0.0396
776.00,0.0451
763.00,0.0455
750.00,0.0362
737.00,0.0881
724.00,0.1540
711.00,0.0401
698.00,0.0270
685.00,0.0322
672.00,0.0680
659.00,0.0326
646.00,0.0298
633.00,0.0384
620.00,0.0696
607.00,0.0574
594.00,0.0549
581.00,0.0555
568.00,0.1036
555.00,0.0944
542.00,0.0715
529.00,0.0462
516.00,0.0328
503.00,0.0278
490.00,0.0241
477.00,0.0238
464.00,0.0487
451.00,0.0312
438.00,0.0217
425.00,0.0255
412.00,0.0350
400.00,0.0339

File: 2025_06_06_Crystalline_Felodipine_Scan3.csv
Created as New Dataset,Sample 625 By YargerLab Date Friday, June 06 2025
cm-1,A
4000.00,0.0091
3987.00,0.0092
3974.00,0.0092
3961.00,0.0092
3948.00,0.0091
3935.00,0.0092
3922.00,0.0093
3909.00,0.0092
3896.00,0.0088
3883.00,0.0087
3870.00,0.0087
3857.00,0.0087
3844.00,0.0086
3831.00,0.0086
3818.00,0.0085
3805.00,0.0087
3792.00,0.0087
3779.00,0.0087
3766.00,0.0086
3753.00,0.0085
3740.00,0.0084
3727.00,0.0084
3714.00,0.0083
3701.00,0.0083
3688.00,0.0081
3675.00,0.0074
3662.00,0.0071
3649.00,0.0070
3636.00,0.0074
3623.00,0.0077
3610.00,0.0077
3597.00,0.0078
3584.00,0.0078
3571.00,0.0079
3558.00,0.0080
3545.00,0.0079
3532.00,0.0079
3519.00,0.0078
3506.00,0.0078
3493.00,0.0078
3480.00,0.0077
3467.00,0.0076
3454.00,0.0076
3441.00,0.0077
3428.00,0.0080
3415.00,0.0089
3402.00,0.0115
3389.00,0.0200
3376.00,0.0527
3363.00,0.0620
3350.00,0.0376
3337.00,0.0256
3324.00,0.0206
3311.00,0.0184
3298.00,0.0166
3285.00,0.0145
3272.00,0.0129
3259.00,0.0124
3246.00,0.0124
3233.00,0.0125
3220.00,0.0117
3207.00,0.0108
3194.00,0.0102
3181.00,0.0100
3168.00,0.0098
3155.00,0.0098
3142.00,0.0101
3129.00,0.0103
3116.00,0.0111
3103.00,0.0124
3090.00,0.0123
3077.00,0.0123
3064.00,0.0119
3051.00,0.0112
3038.00,0.0105
3025.00,0.0112
3012.00,0.0120
2999.00,0.0133
2986.00,0.0164
2973.00,0.0111
2960.00,0.0155
2947.00,0.0223
2934.00,0.0183
2921.00,0.0130
2908.00,0.0122
2895.00,0.0118
2882.00,0.0111
2869.00,0.0108
2856.00,0.0104
2843.00,0.0115
2830.00,0.0113
2817.00,0.0109
2804.00,0.0114
2791.00,0.0104
2778.00,0.0095
2765.00,0.0093
2752.00,0.0092
2739.00,0.0089
2726.00,0.0087
2713.00,0.0085
2700.00,0.0087
2687.00,0.0086
2674.00,0.0083
2661.00,0.0087
2648.00,0.0088
2635.00,0.0089
2622.00,0.0090
2609.00,0.0091
2596.00,0.0090
2583.00,0.0085
2570.00,0.0083
2557.00,0.0083
2544.00,0.0080
2531.00,0.0078
2518.00,0.0081
2505.00,0.0081
2492.00,0.0080
2479.00,0.0081
2466.00,0.0080
2453.00,0.0079
2440.00,0.0076
2427.00,0.0076
2414.00,0.0075
2401.00,0.0070
2388.00,0.0070
2375.00,0.0067
2362.00,0.0067
2349.00,0.0067
2336.00,0.0069
2323.00,0.0080
2310.00,0.0069
2297.00,0.0073
2284.00,0.0079
2271.00,0.0072
2258.00,0.0070
2245.00,0.0066
2232.00,0.0063
2219.00,0.0062
2206.00,0.0056
2193.00,0.0057
2180.00,0.0053
2167.00,0.0070
2154.00,0.0039
2141.00,0.0042
2128.00,0.0045
2115.00,0.0055
2102.00,0.0059
2089.00,0.0057
2076.00,0.0059
2063.00,0.0056
2050.00,0.0059
2037.00,0.0046
2024.00,0.0041
2011.00,0.0048
1998.00,0.0048
1985.00,0.0056
1972.00,0.0037
1959.00,0.0035
1946.00,0.0040
1933.00,0.0045
1920.00,0.0057
1907.00,0.0054
1894.00,0.0047
1881.00,0.0049
1868.00,0.0049
1855.00,0.0058
1842.00,0.0048
1829.00,0.0045
1816.00,0.0043
1803.00,0.0049
1790.00,0.0057
1777.00,0.0055
1764.00,0.0062
1751.00,0.0074
1738.00,0.0085
1725.00,0.0112
1712.00,0.0285
1699.00,0.1515
1686.00,0.1795
1673.00,0.0690
1660.00,0.0414
1647.00,0.0730
1634.00,0.0600
1621.00,0.1084
1608.00,0.0657
1595.00,0.0358
1582.00,0.0285
1569.00,0.0180
1556.00,0.0161
1543.00,0.0140
1530.00,0.0167
1517.00,0.0276
1504.00,0.0926
1491.00,0.1794
1478.00,0.0942
1465.00,0.0678
1452.00,0.0632
1439.00,0.0705
1426.00,0.0792
1413.00,0.0866
1400.00,0.0390
1387.00,0.0538
1374.00,0.0526
1361.00,0.0457
1348.00,0.0176
1335.00,0.0172
1322.00,0.0246
1309.00,0.0923
1296.00,0.0536
1283.00,0.1257
1270.00,0.1497
1257.00,0.0542
1244.00,0.0360
1231.00,0.0306
1218.00,0.0576
1205.00,0.1916
1192.00,0.1367
1179.00,0.0944
1166.00,0.0619
1153.00,0.0509
1140.00,0.1288
1127.00,0.0883
1114.00,0.1735
1101.00,0.2043
1088.00,0.1731
1075.00,0.0894
1062.00,0.1193
1049.00,0.0962
1036.00,0.1104
1023.00,0.1453
1010.00,0.0915
997.00,0.0639
984.00,0.0565
971.00,0.0569
958.00,0.0468
945.00,0.0348
932.00,0.0298
919.00,0.0272
906.00,0.0255
893.00,0.0240
880.00,0.0246
867.00,0.0478
854.00,0.0559
841.00,0.0262
828.00,0.0253
815.00,0.0256
802.00,0.1222
789.00,0.0400
776.00,0.0455
763.00,0.0462
750.00,0.0364
737.00,0.0889
724.00,0.1567
711.00,0.0406
698.00,0.0270
685.00,0.0323
672.00,0.0689
659.00,0.0328
646.00,0.0298
633.00,0.0385
620.00,0.0704
607.00,0.0585
594.00,0.0557
581.00,0.0559
568.00,0.1042
555.00,0.0957
542.00,0.0727
529.00,0.0474
516.00,0.0333
503.00,0.0278
490.00,0.0242
477.00,0.0241
464.00,0.0489
451.00,0.0313
438.00,0.0218
425.00,0.0259
412.00,0.0353
400.00,0.0348

File: 2025_06_06_Crystalline_Nifedipine_05_25_DSC_Scan1.csv
Created as New Dataset,Sample 626 By YargerLab Date Friday, June 06 2025
cm-1,A
4000.00,0.0071
3987.00,0.0071
3974.00,0.0071
3961.00,0.0071
3948.00,0.0071
3935.00,0.0072
3922.00,0.0071
3909.00,0.0070
3896.00,0.0070
3883.00,0.0069
3870.00,0.0069
3857.00,0.0068
3844.00,0.0068
3831.00,0.0069
3818.00,0.0068
3805.00,0.0068
3792.00,0.0068
3779.00,0.0068
3766.00,0.0069
3753.00,0.0067
3740.00,0.0067
3727.00,0.0067
3714.00,0.0066
3701.00,0.0066
3688.00,0.0062
3675.00,0.0055
3662.00,0.0052
3649.00,0.0052
3636.00,0.0056
3623.00,0.0061
3610.00,0.0062
3597.00,0.0063
3584.00,0.0062
3571.00,0.0061
3558.00,0.0061
3545.00,0.0063
3532.00,0.0062
3519.00,0.0063
3506.00,0.0062
3493.00,0.0062
3480.00,0.0061
3467.00,0.0061
3454.00,0.0061
3441.00,0.0062
3428.00,0.0063
3415.00,0.0066
3402.00,0.0070
3389.00,0.0082
3376.00,0.0103
3363.00,0.0135
3350.00,0.0212
3337.00,0.0409
3324.00,0.0491
3311.00,0.0371
3298.00,0.0272
3285.00,0.0224
3272.00,0.0195
3259.00,0.0192
3246.00,0.0184
3233.00,0.0171
3220.00,0.0140
3207.00,0.0122
3194.00,0.0109
3181.00,0.0105
3168.00,0.0101
3155.00,0.0100
3142.00,0.0103
3129.00,0.0110
3116.00,0.0125
3103.00,0.0149
3090.00,0.0132
3077.00,0.0130
3064.00,0.0118
3051.00,0.0108
3038.00,0.0114
3025.00,0.0120
3012.00,0.0109
2999.00,0.0121
2986.00,0.0056
2973.00,0.0036
2960.00,0.0147
2947.00,0.0154
2934.00,0.0124
2921.00,0.0109
2908.00,0.0093
2895.00,0.0078
2882.00,0.0081
2869.00,0.0103
2856.00,0.0100
2843.00,0.0121
2830.00,0.0098
2817.00,0.0097
2804.00,0.0097
2791.00,0.0088
2778.00,0.0082
2765.00,0.0082
2752.00,0.0081
2739.00,0.0080
2726.00,0.0079
2713.00,0.0080
2700.00,0.0080
2687.00,0.0079
2674.00,0.0078
2661.00,0.0079
2648.00,0.0081
2635.00,0.0080
2622.00,0.0082
2609.00,0.0080
2596.00,0.0077
2583.00,0.0075
2570.00,0.0073
2557.00,0.0073
2544.00,0.0073
2531.00,0.0073
2518.00,0.0070
2505.00,0.0068
2492.00,0.0070
2479.00,0.0068
2466.00,0.0069
2453.00,0.0072
2440.00,0.0068
2427.00,0.0066
2414.00,0.0066
2401.00,0.0063
2388.00,0.0062
2375.00,0.0061
2362.00,0.0062
2349.00,0.0056
2336.00,0.0063
2323.00,0.0070
2310.00,0.0059
2297.00,0.0063
2284.00,0.0069
2271.00,0.0064
2258.00,0.0059
2245.00,0.0053
2232.00,0.0049
2219.00,0.0051
2206.00,0.0044
2193.00,0.0048
2180.00,0.0042
2167.00,0.0061
2154.00,0.0030
2141.00,0.0035
2128.00,0.0037
2115.00,0.0048
2102.00,0.0049
2089.00,0.0048
2076.00,0.0051
2063.00,0.0044
2050.00,0.0044
2037.00,0.0028
2024.00,0.0023
2011.00,0.0034
1998.00,0.0038
1985.00,0.0042
1972.00,0.0032
1959.00,0.0033
1946.00,0.0035
1933.00,0.0043
1920.00,0.0046
1907.00,0.0041
1894.00,0.0040
1881.00,0.0039
1868.00,0.0042
1855.00,0.0042
1842.00,0.0041
1829.00,0.0042
1816.00,0.0036
1803.00,0.0045
1790.00,0.0047
1777.00,0.0047
1764.00,0.0053
1751.00,0.0063
1738.00,0.0073
1725.00,0.0091
1712.00,0.0182
1699.00,0.0389
1686.00,0.1226
1673.00,0.1276
1660.00,0.0534
1647.00,0.0771
1634.00,0.0494
1621.00,0.0637
1608.00,0.0460
1595.00,0.0274
1582.00,0.0176
1569.00,0.0183
1556.00,0.0152
1543.00,0.0211
1530.00,0.1111
1517.00,0.0746
1504.00,0.0747
1491.00,0.1193
1478.00,0.0764
1465.00,0.0564
1452.00,0.0494
1439.00,0.0737
1426.00,0.0882
1413.00,0.0400
1400.00,0.0250
1387.00,0.0329
1374.00,0.0328
1361.00,0.0368
1348.00,0.1205
1335.00,0.0766
1322.00,0.0716
1309.00,0.1127
1296.00,0.0684
1283.00,0.0575
1270.00,0.0562
1257.00,0.0319
1244.00,0.0399
1231.00,0.1324
1218.00,0.1743
1205.00,0.0947
1192.00,0.1199
1179.00,0.0744
1166.00,0.0700
1153.00,0.0748
1140.00,0.0418
1127.00,0.0786
1114.00,0.1317
1101.00,0.1371
1088.00,0.0702
1075.00,0.0468
1062.00,0.0467
1049.00,0.0715
1036.00,0.0589
1023.00,0.1136
1010.00,0.0692
997.00,0.0450
984.00,0.0350
971.00,0.0313
958.00,0.0332
945.00,0.0271
932.00,0.0237
919.00,0.0228
906.00,0.0213
893.00,0.0199
880.00,0.0198
867.00,0.0181
854.00,0.0310
841.00,0.0225
828.00,0.0964
815.00,0.0291
802.00,0.0261
789.00,0.0744
776.00,0.0350
763.00,0.0893
750.00,0.0547
737.00,0.0517
724.00,0.0287
711.00,0.1160
698.00,0.0452
685.00,0.0850
672.00,0.0695
659.00,0.0561
646.00,0.0342
633.00,0.0286
620.00,0.0653
607.00,0.0501
594.00,0.0385
581.00,0.0427
568.00,0.0374
555.00,0.0294
542.00,0.0246
529.00,0.0226
516.00,0.0226
503.00,0.0211
490.00,0.0196
477.00,0.0255
464.00,0.0431
451.00,0.0257
438.00,0.0225
425.00,0.0238
412.00,0.0468
400.00,0.0336

File: 2025_06_06_Crystalline_Nifedipine_05_25_DSC_Scan2.csv
Created as New Dataset,Sample 627 By YargerLab Date Friday, June 06 2025
cm-1,A
4000.00,0.0070
3987.00,0.0069
3974.00,0.0069
3961.00,0.0069
3948.00,0.0069
3935.00,0.0069
3922.00,0.0069
3909.00,0.0068
3896.00,0.0068
3883.00,0.0067
3870.00,0.0067
3857.00,0.0065
3844.00,0.0066
3831.00,0.0066
3818.00,0.0065
3805.00,0.0066
3792.00,0.0066
3779.00,0.0066
3766.00,0.0066
3753.00,0.0065
3740.00,0.0065
3727.00,0.0065
3714.00,0.0064
3701.00,0.0064
3688.00,0.0059
3675.00,0.0053
3662.00,0.0050
3649.00,0.0051
3636.00,0.0054
3623.00,0.0060
3610.00,0.0061
3597.00,0.0060
3584.00,0.0061
3571.00,0.0060
3558.00,0.0060
3545.00,0.0061
3532.00,0.0061
3519.00,0.0061
3506.00,0.0060
3493.00,0.0060
3480.00,0.0060
3467.00,0.0060
3454.00,0.0059
3441.00,0.0059
3428.00,0.0061
3415.00,0.0064
3402.00,0.0068
3389.00,0.0081
3376.00,0.0104
3363.00,0.0138
3350.00,0.0220
3337.00,0.0432
3324.00,0.0514
3311.00,0.0383
3298.00,0.0278
3285.00,0.0228
3272.00,0.0198
3259.00,0.0194
3246.00,0.0186
3233.00,0.0173
3220.00,0.0141
3207.00,0.0121
3194.00,0.0108
3181.00,0.0104
3168.00,0.0100
3155.00,0.0099
3142.00,0.0103
3129.00,0.0109
3116.00,0.0125
3103.00,0.0151
3090.00,0.0133
3077.00,0.0131
3064.00,0.0117
3051.00,0.0107
3038.00,0.0114
3025.00,0.0121
3012.00,0.0108
2999.00,0.0123
2986.00,0.0055
2973.00,0.0035
2960.00,0.0149
2947.00,0.0157
2934.00,0.0123
2921.00,0.0108
2908.00,0.0092
2895.00,0.0077
2882.00,0.0080
2869.00,0.0102
2856.00,0.0099
2843.00,0.0121
2830.00,0.0097
2817.00,0.0095
2804.00,0.0096
2791.00,0.0086
2778.00,0.0080
2765.00,0.0080
2752.00,0.0079
2739.00,0.0077
2726.00,0.0077
2713.00,0.0078
2700.00,0.0078
2687.00,0.0077
2674.00,0.0076
2661.00,0.0077
2648.00,0.0079
2635.00,0.0078
2622.00,0.0080
2609.00,0.0078
2596.00,0.0075
2583.00,0.0073
2570.00,0.0070
2557.00,0.0070
2544.00,0.0070
2531.00,0.0070
2518.00,0.0067
2505.00,0.0065
2492.00,0.0068
2479.00,0.0065
2466.00,0.0066
2453.00,0.0070
2440.00,0.0066
2427.00,0.0064
2414.00,0.0063
2401.00,0.0061
2388.00,0.0060
2375.00,0.0059
2362.00,0.0059
2349.00,0.0058
2336.00,0.0061
2323.00,0.0068
2310.00,0.0057
2297.00,0.0060
2284.00,0.0067
2271.00,0.0062
2258.00,0.0056
2245.00,0.0051
2232.00,0.0047
2219.00,0.0047
2206.00,0.0043
2193.00,0.0045
2180.00,0.0042
2167.00,0.0058
2154.00,0.0027
2141.00,0.0031
2128.00,0.0035
2115.00,0.0045
2102.00,0.0046
2089.00,0.0046
2076.00,0.0049
2063.00,0.0042
2050.00,0.0042
2037.00,0.0022
2024.00,0.0023
2011.00,0.0030
1998.00,0.0038
1985.00,0.0041
1972.00,0.0031
1959.00,0.0032
1946.00,0.0035
1933.00,0.0041
1920.00,0.0046
1907.00,0.0040
1894.00,0.0039
1881.00,0.0037
1868.00,0.0042
1855.00,0.0041
1842.00,0.0041
1829.00,0.0041
1816.00,0.0036
1803.00,0.0045
1790.00,0.0047
1777.00,0.0046
1764.00,0.0053
1751.00,0.0064
1738.00,0.0074
1725.00,0.0093
1712.00,0.0186
1699.00,0.0403
1686.00,0.1290
1673.00,0.1329
1660.00,0.0548
1647.00,0.0799
1634.00,0.0506
1621.00,0.0657
1608.00,0.0471
1595.00,0.0279
1582.00,0.0179
1569.00,0.0186
1556.00,0.0153
1543.00,0.0217
1530.00,0.1170
1517.00,0.0770
1504.00,0.0768
1491.00,0.1244
1478.00,0.0787
1465.00,0.0581
1452.00,0.0506
1439.00,0.0762
1426.00,0.0908
1413.00,0.0406
1400.00,0.0255
1387.00,0.0338
1374.00,0.0335
1361.00,0.0379
1348.00,0.1265
1335.00,0.0793
1322.00,0.0741
1309.00,0.1176
1296.00,0.0703
1283.00,0.0589
1270.00,0.0579
1257.00,0.0326
1244.00,0.0411
1231.00,0.1391
1218.00,0.1793
1205.00,0.0965
1192.00,0.1232
1179.00,0.0755
1166.00,0.0718
1153.00,0.0770
1140.00,0.0426
1127.00,0.0812
1114.00,0.1352
1101.00,0.1419
1088.00,0.0714
1075.00,0.0474
1062.00,0.0475
1049.00,0.0729
1036.00,0.0601
1023.00,0.1166
1010.00,0.0699
997.00,0.0449
984.00,0.0349
971.00,0.0311
958.00,0.0332
945.00,0.0268
932.00,0.0233
919.00,0.0224
906.00,0.0208
893.00,0.0195
880.00,0.0195
867.00,0.0178
854.00,0.0311
841.00,0.0223
828.00,0.0980
815.00,0.0288
802.00,0.0262
789.00,0.0745
776.00,0.0350
763.00,0.0907
750.00,0.0554
737.00,0.0513
724.00,0.0285
711.00,0.1173
698.00,0.0449
685.00,0.0860
672.00,0.0695
659.00,0.0558
646.00,0.0336
633.00,0.0280
620.00,0.0655
607.00,0.0499
594.00,0.0380
581.00,0.0422
568.00,0.0369
555.00,0.0287
542.00,0.0238
529.00,0.0218
516.00,0.0217
503.00,0.0206
490.00,0.0189
477.00,0.0249
464.00,0.0431
451.00,0.0253
438.00,0.0221
425.00,0.0230
412.00,0.0475
400.00,0.0319

File: 2025_06_06_Crystalline_Nifedipine_05_25_DSC_Scan3.csv
Created as New Dataset,Sample 628 By YargerLab Date Friday, June 06 2025
cm-1,A
4000.00,0.0073
3987.00,0.0073
3974.00,0.0073
3961.00,0.0073
3948.00,0.0073
3935.00,0.0073
3922.00,0.0072
3909.00,0.0072
3896.00,0.0072
3883.00,0.0071
3870.00,0.0070
3857.00,0.0070
3844.00,0.0070
3831.00,0.0070
3818.00,0.0070
3805.00,0.0069
3792.00,0.0070
3779.00,0.0070
3766.00,0.0070
3753.00,0.0069
3740.00,0.0068
3727.00,0.0069
3714.00,0.0067
3701.00,0.0067
3688.00,0.0063
3675.00,0.0056
3662.00,0.0053
3649.00,0.0053
3636.00,0.0057
3623.00,0.0062
3610.00,0.0064
3597.00,0.0064
3584.00,0.0064
3571.00,0.0063
3558.00,0.0063
3545.00,0.0063
3532.00,0.0063
3519.00,0.0064
3506.00,0.0063
3493.00,0.0063
3480.00,0.0062
3467.00,0.0063
3454.00,0.0063
3441.00,0.0063
3428.00,0.0065
3415.00,0.0068
3402.00,0.0074
3389.00,0.0090
3376.00,0.0117
3363.00,0.0159
3350.00,0.0260
3337.00,0.0516
3324.00,0.0612
3311.00,0.0452
3298.00,0.0322
3285.00,0.0262
3272.00,0.0225
3259.00,0.0220
3246.00,0.0211
3233.00,0.0196
3220.00,0.0157
3207.00,0.0134
3194.00,0.0119
3181.00,0.0114
3168.00,0.0110
3155.00,0.0108
3142.00,0.0113
3129.00,0.0120
3116.00,0.0139
3103.00,0.0170
3090.00,0.0149
3077.00,0.0147
3064.00,0.0130
3051.00,0.0117
3038.00,0.0126
3025.00,0.0135
3012.00,0.0122
2999.00,0.0146
2986.00,0.0069
2973.00,0.0046
2960.00,0.0176
2947.00,0.0186
2934.00,0.0142
2921.00,0.0123
2908.00,0.0105
2895.00,0.0087
2882.00,0.0090
2869.00,0.0114
2856.00,0.0109
2843.00,0.0136
2830.00,0.0106
2817.00,0.0105
2804.00,0.0105
2791.00,0.0093
2778.00,0.0086
2765.00,0.0086
2752.00,0.0084
2739.00,0.0083
2726.00,0.0083
2713.00,0.0083
2700.00,0.0083
2687.00,0.0081
2674.00,0.0081
2661.00,0.0082
2648.00,0.0084
2635.00,0.0083
2622.00,0.0085
2609.00,0.0083
2596.00,0.0080
2583.00,0.0078
2570.00,0.0075
2557.00,0.0074
2544.00,0.0075
2531.00,0.0075
2518.00,0.0072
2505.00,0.0070
2492.00,0.0072
2479.00,0.0070
2466.00,0.0070
2453.00,0.0074
2440.00,0.0070
2427.00,0.0068
2414.00,0.0067
2401.00,0.0065
2388.00,0.0064
2375.00,0.0063
2362.00,0.0063
2349.00,0.0063
2336.00,0.0065
2323.00,0.0072
2310.00,0.0060
2297.00,0.0063
2284.00,0.0071
2271.00,0.0065
2258.00,0.0060
2245.00,0.0056
2232.00,0.0050
2219.00,0.0052
2206.00,0.0046
2193.00,0.0047
2180.00,0.0043
2167.00,0.0061
2154.00,0.0029
2141.00,0.0034
2128.00,0.0038
2115.00,0.0048
2102.00,0.0049
2089.00,0.0049
2076.00,0.0051
2063.00,0.0045
2050.00,0.0046
2037.00,0.0027
2024.00,0.0028
2011.00,0.0035
1998.00,0.0044
1985.00,0.0046
1972.00,0.0034
1959.00,0.0035
1946.00,0.0039
1933.00,0.0046
1920.00,0.0051
1907.00,0.0044
1894.00,0.0043
1881.00,0.0040
1868.00,0.0045
1855.00,0.0046
1842.00,0.0043
1829.00,0.0046
1816.00,0.0039
1803.00,0.0050
1790.00,0.0052
1777.00,0.0054
1764.00,0.0061
1751.00,0.0074
1738.00,0.0088
1725.00,0.0109
1712.00,0.0223
1699.00,0.0483
1686.00,0.1569
1673.00,0.1615
1660.00,0.0648
1647.00,0.0962
1634.00,0.0599
1621.00,0.0786
1608.00,0.0562
1595.00,0.0331
1582.00,0.0209
1569.00,0.0219
1556.00,0.0182
1543.00,0.0262
1530.00,0.1391
1517.00,0.0931
1504.00,0.0917
1491.00,0.1513
1478.00,0.0951
1465.00,0.0694
1452.00,0.0603
1439.00,0.0913
1426.00,0.1104
1413.00,0.0481
1400.00,0.0302
1387.00,0.0405
1374.00,0.0402
1361.00,0.0449
1348.00,0.1527
1335.00,0.0953
1322.00,0.0883
1309.00,0.1422
1296.00,0.0840
1283.00,0.0708
1270.00,0.0689
1257.00,0.0385
1244.00,0.0487
1231.00,0.1637
1218.00,0.2209
1205.00,0.1192
1192.00,0.1497
1179.00,0.0928
1166.00,0.0871
1153.00,0.0935
1140.00,0.0516
1127.00,0.0975
1114.00,0.1691
1101.00,0.1758
1088.00,0.0883
1075.00,0.0574
1062.00,0.0571
1049.00,0.0891
1036.00,0.0726
1023.00,0.1427
1010.00,0.0850
997.00,0.0536
984.00,0.0412
971.00,0.0369
958.00,0.0396
945.00,0.0318
932.00,0.0269
919.00,0.0256
906.00,0.0237
893.00,0.0220
880.00,0.0220
867.00,0.0200
854.00,0.0360
841.00,0.0257
828.00,0.1180
815.00,0.0333
802.00,0.0303
789.00,0.0892
776.00,0.0407
763.00,0.1075
750.00,0.0652
737.00,0.0602
724.00,0.0324
711.00,0.1411
698.00,0.0522
685.00,0.1015
672.00,0.0821
659.00,0.0650
646.00,0.0384
633.00,0.0315
620.00,0.0767
607.00,0.0576
594.00,0.0435
581.00,0.0487
568.00,0.0425
555.00,0.0323
542.00,0.0267
529.00,0.0243
516.00,0.0246
503.00,0.0231
490.00,0.0214
477.00,0.0288
464.00,0.0499
451.00,0.0288
438.00,0.0241
425.00,0.0255
412.00,0.0531
400.00,0.0368