Folder: Data/FTIR/Olivia (part 18)

File: 2025_08_04_1CBN_3PVP90kDa_MC_powder_scan2.csv
Created as New Dataset,Sample 1055 By YargerLab Date Monday, August 04 2025
cm-1,A
4000.00,0.0054
3987.00,0.0054
3974.00,0.0055
3961.00,0.0054
3948.00,0.0054
3935.00,0.0054
3922.00,0.0053
3909.00,0.0054
3896.00,0.0053
3883.00,0.0053
3870.00,0.0053
3857.00,0.0053
3844.00,0.0053
3831.00,0.0052
3818.00,0.0051
3805.00,0.0052
3792.00,0.0051
3779.00,0.0052
3766.00,0.0052
3753.00,0.0052
3740.00,0.0051
3727.00,0.0051
3714.00,0.0050
3701.00,0.0049
3688.00,0.0049
3675.00,0.0049
3662.00,0.0050
3649.00,0.0050
3636.00,0.0052
3623.00,0.0053
3610.00,0.0056
3597.00,0.0058
3584.00,0.0061
3571.00,0.0064
3558.00,0.0070
3545.00,0.0076
3532.00,0.0081
3519.00,0.0088
3506.00,0.0096
3493.00,0.0104
3480.00,0.0118
3467.00,0.0136
3454.00,0.0156
3441.00,0.0180
3428.00,0.0211
3415.00,0.0248
3402.00,0.0271
3389.00,0.0264
3376.00,0.0242
3363.00,0.0222
3350.00,0.0208
3337.00,0.0202
3324.00,0.0203
3311.00,0.0209
3298.00,0.0220
3285.00,0.0234
3272.00,0.0248
3259.00,0.0263
3246.00,0.0275
3233.00,0.0279
3220.00,0.0276
3207.00,0.0262
3194.00,0.0241
3181.00,0.0218
3168.00,0.0195
3155.00,0.0171
3142.00,0.0152
3129.00,0.0137
3116.00,0.0125
3103.00,0.0113
3090.00,0.0111
3077.00,0.0110
3064.00,0.0106
3051.00,0.0108
3038.00,0.0111
3025.00,0.0108
3012.00,0.0100
2999.00,0.0129
2986.00,0.0186
2973.00,0.0279
2960.00,0.0369
2947.00,0.0282
2934.00,0.0455
2921.00,0.0532
2908.00,0.0341
2895.00,0.0251
2882.00,0.0219
2869.00,0.0277
2856.00,0.0420
2843.00,0.0236
2830.00,0.0143
2817.00,0.0115
2804.00,0.0104
2791.00,0.0094
2778.00,0.0088
2765.00,0.0085
2752.00,0.0086
2739.00,0.0089
2726.00,0.0094
2713.00,0.0088
2700.00,0.0087
2687.00,0.0082
2674.00,0.0082
2661.00,0.0087
2648.00,0.0088
2635.00,0.0085
2622.00,0.0080
2609.00,0.0079
2596.00,0.0081
2583.00,0.0081
2570.00,0.0079
2557.00,0.0076
2544.00,0.0075
2531.00,0.0074
2518.00,0.0072
2505.00,0.0068
2492.00,0.0067
2479.00,0.0065
2466.00,0.0064
2453.00,0.0065
2440.00,0.0063
2427.00,0.0062
2414.00,0.0062
2401.00,0.0060
2388.00,0.0059
2375.00,0.0057
2362.00,0.0056
2349.00,0.0058
2336.00,0.0058
2323.00,0.0071
2310.00,0.0063
2297.00,0.0065
2284.00,0.0069
2271.00,0.0062
2258.00,0.0057
2245.00,0.0058
2232.00,0.0057
2219.00,0.0056
2206.00,0.0057
2193.00,0.0054
2180.00,0.0053
2167.00,0.0064
2154.00,0.0035
2141.00,0.0038
2128.00,0.0043
2115.00,0.0050
2102.00,0.0049
2089.00,0.0047
2076.00,0.0052
2063.00,0.0048
2050.00,0.0051
2037.00,0.0050
2024.00,0.0045
2011.00,0.0037
1998.00,0.0046
1985.00,0.0053
1972.00,0.0039
1959.00,0.0034
1946.00,0.0041
1933.00,0.0045
1920.00,0.0048
1907.00,0.0064
1894.00,0.0055
1881.00,0.0049
1868.00,0.0049
1855.00,0.0051
1842.00,0.0054
1829.00,0.0049
1816.00,0.0049
1803.00,0.0053
1790.00,0.0055
1777.00,0.0058
1764.00,0.0059
1751.00,0.0059
1738.00,0.0059
1725.00,0.0071
1712.00,0.0083
1699.00,0.0109
1686.00,0.0192
1673.00,0.0264
1660.00,0.0323
1647.00,0.0333
1634.00,0.0332
1621.00,0.0760
1608.00,0.0561
1595.00,0.0286
1582.00,0.0582
1569.00,0.0349
1556.00,0.0165
1543.00,0.0134
1530.00,0.0123
1517.00,0.0157
1504.00,0.0211
1491.00,0.0311
1478.00,0.0171
1465.00,0.0427
1452.00,0.0376
1439.00,0.0531
1426.00,0.0643
1413.00,0.0470
1400.00,0.0709
1387.00,0.0481
1374.00,0.0378
1361.00,0.0562
1348.00,0.0429
1335.00,0.0314
1322.00,0.0329
1309.00,0.0313
1296.00,0.0524
1283.00,0.0635
1270.00,0.0407
1257.00,0.0289
1244.00,0.0416
1231.00,0.0569
1218.00,0.0423
1205.00,0.0339
1192.00,0.0612
1179.00,0.0267
1166.00,0.0250
1153.00,0.0605
1140.00,0.0245
1127.00,0.0735
1114.00,0.0330
1101.00,0.0460
1088.00,0.0214
1075.00,0.0212
1062.00,0.0377
1049.00,0.0990
1036.00,0.0481
1023.00,0.0716
1010.00,0.0305
997.00,0.0377
984.00,0.0222
971.00,0.0206
958.00,0.0187
945.00,0.0168
932.00,0.0239
919.00,0.0241
906.00,0.0168
893.00,0.0239
880.00,0.0208
867.00,0.0554
854.00,0.0401
841.00,0.0368
828.00,0.0392
815.00,0.0741
802.00,0.0197
789.00,0.0179
776.00,0.0237
763.00,0.0223
750.00,0.0242
737.00,0.0419
724.00,0.0363
711.00,0.0360
698.00,0.0395
685.00,0.0408
672.00,0.0500
659.00,0.0503
646.00,0.0457
633.00,0.0436
620.00,0.0506
607.00,0.0501
594.00,0.0609
581.00,0.0602
568.00,0.0575
555.00,0.0615
542.00,0.0649
529.00,0.0655
516.00,0.0507
503.00,0.0517
490.00,0.0522
477.00,0.0483
464.00,0.0471
451.00,0.0470
438.00,0.0462
425.00,0.0443
412.00,0.0445
400.00,0.0438

File: 2025_08_04_1CBN_3PVP90kDa_MC_powder_scan3.csv
Created as New Dataset,Sample 1056 By YargerLab Date Monday, August 04 2025
cm-1,A
4000.00,0.0053
3987.00,0.0053
3974.00,0.0053
3961.00,0.0052
3948.00,0.0052
3935.00,0.0053
3922.00,0.0053
3909.00,0.0053
3896.00,0.0051
3883.00,0.0051
3870.00,0.0052
3857.00,0.0051
3844.00,0.0051
3831.00,0.0051
3818.00,0.0050
3805.00,0.0050
3792.00,0.0050
3779.00,0.0050
3766.00,0.0051
3753.00,0.0051
3740.00,0.0050
3727.00,0.0050
3714.00,0.0049
3701.00,0.0049
3688.00,0.0048
3675.00,0.0048
3662.00,0.0049
3649.00,0.0050
3636.00,0.0051
3623.00,0.0053
3610.00,0.0057
3597.00,0.0058
3584.00,0.0061
3571.00,0.0065
3558.00,0.0070
3545.00,0.0077
3532.00,0.0083
3519.00,0.0089
3506.00,0.0097
3493.00,0.0105
3480.00,0.0118
3467.00,0.0135
3454.00,0.0154
3441.00,0.0177
3428.00,0.0207
3415.00,0.0242
3402.00,0.0262
3389.00,0.0254
3376.00,0.0233
3363.00,0.0214
3350.00,0.0202
3337.00,0.0197
3324.00,0.0197
3311.00,0.0204
3298.00,0.0214
3285.00,0.0227
3272.00,0.0240
3259.00,0.0252
3246.00,0.0264
3233.00,0.0267
3220.00,0.0263
3207.00,0.0248
3194.00,0.0227
3181.00,0.0206
3168.00,0.0184
3155.00,0.0162
3142.00,0.0144
3129.00,0.0130
3116.00,0.0119
3103.00,0.0107
3090.00,0.0106
3077.00,0.0105
3064.00,0.0102
3051.00,0.0104
3038.00,0.0106
3025.00,0.0104
3012.00,0.0097
2999.00,0.0125
2986.00,0.0178
2973.00,0.0264
2960.00,0.0350
2947.00,0.0270
2934.00,0.0432
2921.00,0.0495
2908.00,0.0316
2895.00,0.0236
2882.00,0.0207
2869.00,0.0261
2856.00,0.0390
2843.00,0.0216
2830.00,0.0133
2817.00,0.0108
2804.00,0.0098
2791.00,0.0089
2778.00,0.0084
2765.00,0.0081
2752.00,0.0082
2739.00,0.0085
2726.00,0.0089
2713.00,0.0084
2700.00,0.0082
2687.00,0.0079
2674.00,0.0078
2661.00,0.0083
2648.00,0.0083
2635.00,0.0081
2622.00,0.0076
2609.00,0.0076
2596.00,0.0077
2583.00,0.0078
2570.00,0.0075
2557.00,0.0072
2544.00,0.0072
2531.00,0.0071
2518.00,0.0069
2505.00,0.0066
2492.00,0.0063
2479.00,0.0062
2466.00,0.0062
2453.00,0.0063
2440.00,0.0061
2427.00,0.0060
2414.00,0.0059
2401.00,0.0058
2388.00,0.0057
2375.00,0.0055
2362.00,0.0055
2349.00,0.0057
2336.00,0.0058
2323.00,0.0068
2310.00,0.0059
2297.00,0.0062
2284.00,0.0066
2271.00,0.0059
2258.00,0.0055
2245.00,0.0056
2232.00,0.0056
2219.00,0.0054
2206.00,0.0057
2193.00,0.0056
2180.00,0.0052
2167.00,0.0061
2154.00,0.0036
2141.00,0.0038
2128.00,0.0042
2115.00,0.0050
2102.00,0.0047
2089.00,0.0046
2076.00,0.0051
2063.00,0.0046
2050.00,0.0050
2037.00,0.0049
2024.00,0.0044
2011.00,0.0039
1998.00,0.0040
1985.00,0.0049
1972.00,0.0036
1959.00,0.0035
1946.00,0.0041
1933.00,0.0043
1920.00,0.0048
1907.00,0.0061
1894.00,0.0055
1881.00,0.0048
1868.00,0.0048
1855.00,0.0051
1842.00,0.0052
1829.00,0.0049
1816.00,0.0048
1803.00,0.0052
1790.00,0.0053
1777.00,0.0057
1764.00,0.0057
1751.00,0.0058
1738.00,0.0058
1725.00,0.0069
1712.00,0.0082
1699.00,0.0107
1686.00,0.0191
1673.00,0.0267
1660.00,0.0333
1647.00,0.0345
1634.00,0.0335
1621.00,0.0713
1608.00,0.0516
1595.00,0.0267
1582.00,0.0533
1569.00,0.0317
1556.00,0.0153
1543.00,0.0126
1530.00,0.0116
1517.00,0.0146
1504.00,0.0197
1491.00,0.0287
1478.00,0.0160
1465.00,0.0396
1452.00,0.0351
1439.00,0.0495
1426.00,0.0597
1413.00,0.0438
1400.00,0.0645
1387.00,0.0435
1374.00,0.0345
1361.00,0.0509
1348.00,0.0385
1335.00,0.0284
1322.00,0.0302
1309.00,0.0288
1296.00,0.0481
1283.00,0.0587
1270.00,0.0388
1257.00,0.0273
1244.00,0.0381
1231.00,0.0514
1218.00,0.0387
1205.00,0.0309
1192.00,0.0541
1179.00,0.0243
1166.00,0.0231
1153.00,0.0536
1140.00,0.0221
1127.00,0.0641
1114.00,0.0292
1101.00,0.0404
1088.00,0.0194
1075.00,0.0194
1062.00,0.0342
1049.00,0.0868
1036.00,0.0421
1023.00,0.0617
1010.00,0.0272
997.00,0.0330
984.00,0.0200
971.00,0.0185
958.00,0.0169
945.00,0.0152
932.00,0.0215
919.00,0.0215
906.00,0.0154
893.00,0.0215
880.00,0.0189
867.00,0.0482
854.00,0.0356
841.00,0.0329
828.00,0.0347
815.00,0.0636
802.00,0.0180
789.00,0.0167
776.00,0.0215
763.00,0.0205
750.00,0.0225
737.00,0.0378
724.00,0.0327
711.00,0.0322
698.00,0.0354
685.00,0.0368
672.00,0.0448
659.00,0.0455
646.00,0.0418
633.00,0.0400
620.00,0.0457
607.00,0.0451
594.00,0.0544
581.00,0.0543
568.00,0.0519
555.00,0.0547
542.00,0.0573
529.00,0.0579
516.00,0.0453
503.00,0.0459
490.00,0.0461
477.00,0.0434
464.00,0.0418
451.00,0.0419
438.00,0.0413
425.00,0.0396
412.00,0.0412
400.00,0.0385

File: 2025_08_04_1CBN_3PVP90kDa_MortPest_powder_scan1.csv
Created as New Dataset,Sample 1051 By YargerLab Date Monday, August 04 2025
cm-1,A
4000.00,0.0024
3987.00,0.0024
3974.00,0.0024
3961.00,0.0023
3948.00,0.0023
3935.00,0.0023
3922.00,0.0024
3909.00,0.0023
3896.00,0.0023
3883.00,0.0023
3870.00,0.0023
3857.00,0.0023
3844.00,0.0023
3831.00,0.0023
3818.00,0.0022
3805.00,0.0023
3792.00,0.0023
3779.00,0.0023
3766.00,0.0023
3753.00,0.0022
3740.00,0.0022
3727.00,0.0022
3714.00,0.0022
3701.00,0.0021
3688.00,0.0022
3675.00,0.0022
3662.00,0.0024
3649.00,0.0023
3636.00,0.0025
3623.00,0.0027
3610.00,0.0029
3597.00,0.0031
3584.00,0.0034
3571.00,0.0038
3558.00,0.0043
3545.00,0.0047
3532.00,0.0052
3519.00,0.0057
3506.00,0.0061
3493.00,0.0068
3480.00,0.0075
3467.00,0.0085
3454.00,0.0097
3441.00,0.0110
3428.00,0.0128
3415.00,0.0148
3402.00,0.0161
3389.00,0.0157
3376.00,0.0144
3363.00,0.0132
3350.00,0.0123
3337.00,0.0120
3324.00,0.0120
3311.00,0.0122
3298.00,0.0128
3285.00,0.0135
3272.00,0.0142
3259.00,0.0150
3246.00,0.0156
3233.00,0.0158
3220.00,0.0155
3207.00,0.0147
3194.00,0.0135
3181.00,0.0122
3168.00,0.0110
3155.00,0.0096
3142.00,0.0084
3129.00,0.0075
3116.00,0.0068
3103.00,0.0060
3090.00,0.0059
3077.00,0.0058
3064.00,0.0056
3051.00,0.0057
3038.00,0.0058
3025.00,0.0057
3012.00,0.0053
2999.00,0.0070
2986.00,0.0103
2973.00,0.0158
2960.00,0.0211
2947.00,0.0162
2934.00,0.0259
2921.00,0.0309
2908.00,0.0199
2895.00,0.0148
2882.00,0.0128
2869.00,0.0159
2856.00,0.0241
2843.00,0.0138
2830.00,0.0081
2817.00,0.0063
2804.00,0.0057
2791.00,0.0050
2778.00,0.0047
2765.00,0.0045
2752.00,0.0044
2739.00,0.0047
2726.00,0.0049
2713.00,0.0046
2700.00,0.0045
2687.00,0.0043
2674.00,0.0042
2661.00,0.0046
2648.00,0.0047
2635.00,0.0045
2622.00,0.0042
2609.00,0.0042
2596.00,0.0043
2583.00,0.0042
2570.00,0.0041
2557.00,0.0039
2544.00,0.0038
2531.00,0.0038
2518.00,0.0035
2505.00,0.0034
2492.00,0.0033
2479.00,0.0032
2466.00,0.0031
2453.00,0.0033
2440.00,0.0032
2427.00,0.0030
2414.00,0.0029
2401.00,0.0029
2388.00,0.0027
2375.00,0.0027
2362.00,0.0027
2349.00,0.0028
2336.00,0.0030
2323.00,0.0039
2310.00,0.0031
2297.00,0.0034
2284.00,0.0039
2271.00,0.0031
2258.00,0.0028
2245.00,0.0029
2232.00,0.0029
2219.00,0.0027
2206.00,0.0029
2193.00,0.0027
2180.00,0.0024
2167.00,0.0037
2154.00,0.0007
2141.00,0.0015
2128.00,0.0014
2115.00,0.0025
2102.00,0.0023
2089.00,0.0022
2076.00,0.0027
2063.00,0.0020
2050.00,0.0028
2037.00,0.0026
2024.00,0.0016
2011.00,0.0016
1998.00,0.0015
1985.00,0.0025
1972.00,0.0014
1959.00,0.0012
1946.00,0.0014
1933.00,0.0017
1920.00,0.0020
1907.00,0.0030
1894.00,0.0027
1881.00,0.0023
1868.00,0.0023
1855.00,0.0024
1842.00,0.0025
1829.00,0.0023
1816.00,0.0022
1803.00,0.0026
1790.00,0.0027
1777.00,0.0029
1764.00,0.0030
1751.00,0.0031
1738.00,0.0031
1725.00,0.0039
1712.00,0.0049
1699.00,0.0069
1686.00,0.0135
1673.00,0.0201
1660.00,0.0254
1647.00,0.0271
1634.00,0.0255
1621.00,0.0470
1608.00,0.0346
1595.00,0.0179
1582.00,0.0337
1569.00,0.0206
1556.00,0.0099
1543.00,0.0079
1530.00,0.0072
1517.00,0.0092
1504.00,0.0128
1491.00,0.0197
1478.00,0.0105
1465.00,0.0276
1452.00,0.0237
1439.00,0.0344
1426.00,0.0413
1413.00,0.0291
1400.00,0.0406
1387.00,0.0281
1374.00,0.0231
1361.00,0.0326
1348.00,0.0253
1335.00,0.0190
1322.00,0.0209
1309.00,0.0195
1296.00,0.0340
1283.00,0.0418
1270.00,0.0283
1257.00,0.0189
1244.00,0.0252
1231.00,0.0346
1218.00,0.0261
1205.00,0.0206
1192.00,0.0354
1179.00,0.0162
1166.00,0.0151
1153.00,0.0332
1140.00,0.0141
1127.00,0.0405
1114.00,0.0192
1101.00,0.0262
1088.00,0.0126
1075.00,0.0124
1062.00,0.0212
1049.00,0.0530
1036.00,0.0277
1023.00,0.0405
1010.00,0.0180
997.00,0.0221
984.00,0.0130
971.00,0.0120
958.00,0.0109
945.00,0.0099
932.00,0.0143
919.00,0.0144
906.00,0.0101
893.00,0.0145
880.00,0.0125
867.00,0.0326
854.00,0.0245
841.00,0.0232
828.00,0.0242
815.00,0.0441
802.00,0.0130
789.00,0.0118
776.00,0.0156
763.00,0.0152
750.00,0.0166
737.00,0.0277
724.00,0.0246
711.00,0.0246
698.00,0.0267
685.00,0.0280
672.00,0.0336
659.00,0.0346
646.00,0.0324
633.00,0.0308
620.00,0.0353
607.00,0.0348
594.00,0.0416
581.00,0.0415
568.00,0.0400
555.00,0.0425
542.00,0.0445
529.00,0.0438
516.00,0.0353
503.00,0.0356
490.00,0.0354
477.00,0.0330
464.00,0.0332
451.00,0.0329
438.00,0.0325
425.00,0.0308
412.00,0.0340
400.00,0.0319

File: 2025_08_04_1CBN_3PVP90kDa_MortPest_powder_scan2.csv
Created as New Dataset,Sample 1052 By YargerLab Date Monday, August 04 2025
cm-1,A
4000.00,0.0043
3987.00,0.0042
3974.00,0.0042
3961.00,0.0042
3948.00,0.0042
3935.00,0.0042
3922.00,0.0042
3909.00,0.0042
3896.00,0.0042
3883.00,0.0041
3870.00,0.0041
3857.00,0.0041
3844.00,0.0041
3831.00,0.0042
3818.00,0.0041
3805.00,0.0040
3792.00,0.0041
3779.00,0.0041
3766.00,0.0041
3753.00,0.0040
3740.00,0.0040
3727.00,0.0040
3714.00,0.0040
3701.00,0.0040
3688.00,0.0039
3675.00,0.0040
3662.00,0.0042
3649.00,0.0042
3636.00,0.0045
3623.00,0.0047
3610.00,0.0050
3597.00,0.0054
3584.00,0.0059
3571.00,0.0063
3558.00,0.0070
3545.00,0.0076
3532.00,0.0083
3519.00,0.0089
3506.00,0.0095
3493.00,0.0104
3480.00,0.0114
3467.00,0.0128
3454.00,0.0144
3441.00,0.0162
3428.00,0.0186
3415.00,0.0215
3402.00,0.0231
3389.00,0.0225
3376.00,0.0207
3363.00,0.0190
3350.00,0.0179
3337.00,0.0173
3324.00,0.0173
3311.00,0.0177
3298.00,0.0185
3285.00,0.0195
3272.00,0.0204
3259.00,0.0215
3246.00,0.0223
3233.00,0.0225
3220.00,0.0221
3207.00,0.0211
3194.00,0.0193
3181.00,0.0176
3168.00,0.0158
3155.00,0.0139
3142.00,0.0124
3129.00,0.0112
3116.00,0.0103
3103.00,0.0092
3090.00,0.0090
3077.00,0.0089
3064.00,0.0086
3051.00,0.0087
3038.00,0.0089
3025.00,0.0087
3012.00,0.0082
2999.00,0.0107
2986.00,0.0153
2973.00,0.0229
2960.00,0.0303
2947.00,0.0236
2934.00,0.0371
2921.00,0.0434
2908.00,0.0282
2895.00,0.0212
2882.00,0.0186
2869.00,0.0228
2856.00,0.0339
2843.00,0.0194
2830.00,0.0119
2817.00,0.0095
2804.00,0.0086
2791.00,0.0078
2778.00,0.0073
2765.00,0.0070
2752.00,0.0070
2739.00,0.0073
2726.00,0.0076
2713.00,0.0072
2700.00,0.0070
2687.00,0.0067
2674.00,0.0066
2661.00,0.0071
2648.00,0.0072
2635.00,0.0070
2622.00,0.0065
2609.00,0.0065
2596.00,0.0067
2583.00,0.0066
2570.00,0.0065
2557.00,0.0062
2544.00,0.0060
2531.00,0.0061
2518.00,0.0057
2505.00,0.0056
2492.00,0.0054
2479.00,0.0053
2466.00,0.0053
2453.00,0.0053
2440.00,0.0052
2427.00,0.0050
2414.00,0.0050
2401.00,0.0049
2388.00,0.0048
2375.00,0.0046
2362.00,0.0045
2349.00,0.0053
2336.00,0.0048
2323.00,0.0058
2310.00,0.0052
2297.00,0.0054
2284.00,0.0058
2271.00,0.0051
2258.00,0.0047
2245.00,0.0048
2232.00,0.0047
2219.00,0.0048
2206.00,0.0047
2193.00,0.0049
2180.00,0.0043
2167.00,0.0056
2154.00,0.0023
2141.00,0.0032
2128.00,0.0034
2115.00,0.0044
2102.00,0.0040
2089.00,0.0040
2076.00,0.0044
2063.00,0.0036
2050.00,0.0042
2037.00,0.0041
2024.00,0.0038
2011.00,0.0032
1998.00,0.0032
1985.00,0.0041
1972.00,0.0030
1959.00,0.0029
1946.00,0.0034
1933.00,0.0034
1920.00,0.0039
1907.00,0.0051
1894.00,0.0047
1881.00,0.0040
1868.00,0.0043
1855.00,0.0042
1842.00,0.0044
1829.00,0.0043
1816.00,0.0039
1803.00,0.0045
1790.00,0.0046
1777.00,0.0050
1764.00,0.0050
1751.00,0.0053
1738.00,0.0054
1725.00,0.0064
1712.00,0.0078
1699.00,0.0114
1686.00,0.0210
1673.00,0.0314
1660.00,0.0390
1647.00,0.0413
1634.00,0.0384
1621.00,0.0675
1608.00,0.0487
1595.00,0.0255
1582.00,0.0470
1569.00,0.0288
1556.00,0.0144
1543.00,0.0121
1530.00,0.0107
1517.00,0.0138
1504.00,0.0185
1491.00,0.0279
1478.00,0.0152
1465.00,0.0394
1452.00,0.0339
1439.00,0.0488
1426.00,0.0595
1413.00,0.0422
1400.00,0.0570
1387.00,0.0395
1374.00,0.0329
1361.00,0.0460
1348.00,0.0351
1335.00,0.0264
1322.00,0.0294
1309.00,0.0278
1296.00,0.0479
1283.00,0.0601
1270.00,0.0417
1257.00,0.0283
1244.00,0.0364
1231.00,0.0489
1218.00,0.0374
1205.00,0.0295
1192.00,0.0494
1179.00,0.0230
1166.00,0.0218
1153.00,0.0468
1140.00,0.0200
1127.00,0.0563
1114.00,0.0268
1101.00,0.0363
1088.00,0.0178
1075.00,0.0175
1062.00,0.0297
1049.00,0.0743
1036.00,0.0380
1023.00,0.0559
1010.00,0.0251
997.00,0.0304
984.00,0.0180
971.00,0.0166
958.00,0.0152
945.00,0.0137
932.00,0.0197
919.00,0.0195
906.00,0.0140
893.00,0.0198
880.00,0.0171
867.00,0.0443
854.00,0.0336
841.00,0.0319
828.00,0.0328
815.00,0.0599
802.00,0.0173
789.00,0.0159
776.00,0.0209
763.00,0.0203
750.00,0.0226
737.00,0.0376
724.00,0.0329
711.00,0.0327
698.00,0.0358
685.00,0.0375
672.00,0.0455
659.00,0.0469
646.00,0.0438
633.00,0.0415
620.00,0.0476
607.00,0.0470
594.00,0.0566
581.00,0.0565
568.00,0.0542
555.00,0.0572
542.00,0.0601
529.00,0.0594
516.00,0.0471
503.00,0.0476
490.00,0.0472
477.00,0.0441
464.00,0.0431
451.00,0.0420
438.00,0.0432
425.00,0.0416
412.00,0.0428
400.00,0.0415

File: 2025_08_04_1CBN_3PVP90kDa_MortPest_powder_scan3.csv
Created as New Dataset,Sample 1053 By YargerLab Date Monday, August 04 2025
cm-1,A
4000.00,0.0050
3987.00,0.0049
3974.00,0.0050
3961.00,0.0050
3948.00,0.0049
3935.00,0.0049
3922.00,0.0049
3909.00,0.0049
3896.00,0.0049
3883.00,0.0048
3870.00,0.0048
3857.00,0.0048
3844.00,0.0048
3831.00,0.0048
3818.00,0.0048
3805.00,0.0047
3792.00,0.0048
3779.00,0.0047
3766.00,0.0048
3753.00,0.0047
3740.00,0.0047
3727.00,0.0046
3714.00,0.0046
3701.00,0.0046
3688.00,0.0046
3675.00,0.0047
3662.00,0.0049
3649.00,0.0048
3636.00,0.0051
3623.00,0.0053
3610.00,0.0056
3597.00,0.0059
3584.00,0.0064
3571.00,0.0069
3558.00,0.0076
3545.00,0.0083
3532.00,0.0091
3519.00,0.0100
3506.00,0.0107
3493.00,0.0118
3480.00,0.0133
3467.00,0.0151
3454.00,0.0173
3441.00,0.0200
3428.00,0.0233
3415.00,0.0273
3402.00,0.0297
3389.00,0.0288
3376.00,0.0263
3363.00,0.0240
3350.00,0.0225
3337.00,0.0218
3324.00,0.0218
3311.00,0.0223
3298.00,0.0234
3285.00,0.0249
3272.00,0.0262
3259.00,0.0278
3246.00,0.0290
3233.00,0.0293
3220.00,0.0290
3207.00,0.0274
3194.00,0.0251
3181.00,0.0226
3168.00,0.0202
3155.00,0.0176
3142.00,0.0155
3129.00,0.0139
3116.00,0.0127
3103.00,0.0113
3090.00,0.0111
3077.00,0.0110
3064.00,0.0107
3051.00,0.0109
3038.00,0.0112
3025.00,0.0109
3012.00,0.0102
2999.00,0.0138
2986.00,0.0201
2973.00,0.0307
2960.00,0.0406
2947.00,0.0313
2934.00,0.0511
2921.00,0.0590
2908.00,0.0373
2895.00,0.0274
2882.00,0.0239
2869.00,0.0302
2856.00,0.0459
2843.00,0.0249
2830.00,0.0147
2817.00,0.0116
2804.00,0.0104
2791.00,0.0094
2778.00,0.0087
2765.00,0.0084
2752.00,0.0084
2739.00,0.0088
2726.00,0.0092
2713.00,0.0087
2700.00,0.0085
2687.00,0.0081
2674.00,0.0080
2661.00,0.0085
2648.00,0.0087
2635.00,0.0083
2622.00,0.0078
2609.00,0.0078
2596.00,0.0079
2583.00,0.0080
2570.00,0.0077
2557.00,0.0073
2544.00,0.0071
2531.00,0.0072
2518.00,0.0068
2505.00,0.0066
2492.00,0.0063
2479.00,0.0062
2466.00,0.0061
2453.00,0.0063
2440.00,0.0061
2427.00,0.0059
2414.00,0.0058
2401.00,0.0058
2388.00,0.0056
2375.00,0.0054
2362.00,0.0054
2349.00,0.0055
2336.00,0.0058
2323.00,0.0067
2310.00,0.0059
2297.00,0.0062
2284.00,0.0067
2271.00,0.0058
2258.00,0.0054
2245.00,0.0056
2232.00,0.0057
2219.00,0.0054
2206.00,0.0053
2193.00,0.0054
2180.00,0.0051
2167.00,0.0065
2154.00,0.0029
2141.00,0.0038
2128.00,0.0039
2115.00,0.0050
2102.00,0.0045
2089.00,0.0044
2076.00,0.0051
2063.00,0.0042
2050.00,0.0048
2037.00,0.0048
2024.00,0.0042
2011.00,0.0037
1998.00,0.0039
1985.00,0.0047
1972.00,0.0037
1959.00,0.0032
1946.00,0.0040
1933.00,0.0042
1920.00,0.0045
1907.00,0.0062
1894.00,0.0056
1881.00,0.0047
1868.00,0.0049
1855.00,0.0050
1842.00,0.0051
1829.00,0.0048
1816.00,0.0048
1803.00,0.0052
1790.00,0.0053
1777.00,0.0059
1764.00,0.0059
1751.00,0.0061
1738.00,0.0061
1725.00,0.0076
1712.00,0.0093
1699.00,0.0134
1686.00,0.0252
1673.00,0.0359
1660.00,0.0437
1647.00,0.0457
1634.00,0.0433
1621.00,0.0875
1608.00,0.0626
1595.00,0.0320
1582.00,0.0630
1569.00,0.0371
1556.00,0.0173
1543.00,0.0142
1530.00,0.0128
1517.00,0.0168
1504.00,0.0231
1491.00,0.0346
1478.00,0.0187
1465.00,0.0491
1452.00,0.0429
1439.00,0.0613
1426.00,0.0753
1413.00,0.0544
1400.00,0.0767
1387.00,0.0519
1374.00,0.0417
1361.00,0.0611
1348.00,0.0457
1335.00,0.0336
1322.00,0.0364
1309.00,0.0350
1296.00,0.0594
1283.00,0.0750
1270.00,0.0503
1257.00,0.0346
1244.00,0.0465
1231.00,0.0630
1218.00,0.0473
1205.00,0.0374
1192.00,0.0647
1179.00,0.0287
1166.00,0.0273
1153.00,0.0623
1140.00,0.0254
1127.00,0.0757
1114.00,0.0340
1101.00,0.0475
1088.00,0.0219
1075.00,0.0220
1062.00,0.0394
1049.00,0.1017
1036.00,0.0495
1023.00,0.0727
1010.00,0.0313
997.00,0.0382
984.00,0.0220
971.00,0.0204
958.00,0.0184
945.00,0.0167
932.00,0.0245
919.00,0.0242
906.00,0.0171
893.00,0.0248
880.00,0.0214
867.00,0.0570
854.00,0.0426
841.00,0.0395
828.00,0.0408
815.00,0.0766
802.00,0.0200
789.00,0.0184
776.00,0.0248
763.00,0.0238
750.00,0.0264
737.00,0.0458
724.00,0.0390
711.00,0.0386
698.00,0.0426
685.00,0.0445
672.00,0.0547
659.00,0.0560
646.00,0.0519
633.00,0.0490
620.00,0.0566
607.00,0.0561
594.00,0.0674
581.00,0.0676
568.00,0.0645
555.00,0.0681
542.00,0.0713
529.00,0.0708
516.00,0.0553
503.00,0.0562
490.00,0.0556
477.00,0.0521
464.00,0.0509
451.00,0.0492
438.00,0.0506
425.00,0.0483
412.00,0.0515
400.00,0.0481

File: 2025_08_04_Polystyrene_film_scan1.csv
Created as New Dataset,Sample 1029 By YargerLab Date Friday, August 01 2025
cm-1,A
4000.00,0.0003
3987.00,0.0002
3974.00,0.0002
3961.00,0.0002
3948.00,0.0001
3935.00,0.0002
3922.00,0.0003
3909.00,0.0002
3896.00,0.0002
3883.00,0.0003
3870.00,0.0003
3857.00,0.0003
3844.00,0.0003
3831.00,0.0003
3818.00,0.0003
3805.00,0.0004
3792.00,0.0003
3779.00,0.0002
3766.00,0.0002
3753.00,0.0004
3740.00,0.0002
3727.00,0.0001
3714.00,0.0002
3701.00,0.0001
3688.00,0.0002
3675.00,0.0003
3662.00,0.0003
3649.00,0.0002
3636.00,0.0002
3623.00,0.0002
3610.00,0.0002
3597.00,0.0002
3584.00,0.0002
3571.00,0.0002
3558.00,0.0004
3545.00,0.0004
3532.00,0.0005
3519.00,0.0006
3506.00,0.0007
3493.00,0.0007
3480.00,0.0008
3467.00,0.0008
3454.00,0.0008
3441.00,0.0009
3428.00,0.0009
3415.00,0.0009
3402.00,0.0010
3389.00,0.0009
3376.00,0.0009
3363.00,0.0009
3350.00,0.0010
3337.00,0.0009
3324.00,0.0009
3311.00,0.0009
3298.00,0.0009
3285.00,0.0008
3272.00,0.0008
3259.00,0.0008
3246.00,0.0007
3233.00,0.0007
3220.00,0.0007
3207.00,0.0006
3194.00,0.0006
3181.00,0.0006
3168.00,0.0006
3155.00,0.0006
3142.00,0.0004
3129.00,0.0004
3116.00,0.0005
3103.00,0.0011
3090.00,0.0014
3077.00,0.0021
3064.00,0.0028
3051.00,0.0023
3038.00,0.0023
3025.00,0.0066
3012.00,0.0019
2999.00,0.0019
2986.00,0.0013
2973.00,0.0020
2960.00,0.0034
2947.00,0.0044
2934.00,0.0086
2921.00,0.0135
2908.00,0.0090
2895.00,0.0054
2882.00,0.0036
2869.00,0.0033
2856.00,0.0054
2843.00,0.0043
2830.00,0.0012
2817.00,0.0008
2804.00,0.0007
2791.00,0.0005
2778.00,0.0005
2765.00,0.0004
2752.00,0.0004
2739.00,0.0004
2726.00,0.0004
2713.00,0.0004
2700.00,0.0003
2687.00,0.0004
2674.00,0.0004
2661.00,0.0007
2648.00,0.0009
2635.00,0.0008
2622.00,0.0007
2609.00,0.0006
2596.00,0.0006
2583.00,0.0005
2570.00,0.0003
2557.00,0.0003
2544.00,0.0003
2531.00,0.0002
2518.00,0.0002
2505.00,0.0001
2492.00,0.0002
2479.00,0.0000
2466.00,0.0001
2453.00,0.0002
2440.00,0.0001
2427.00,-0.0000
2414.00,-0.0001
2401.00,-0.0002
2388.00,-0.0003
2375.00,-0.0004
2362.00,-0.0004
2349.00,-0.0004
2336.00,0.0001
2323.00,0.0009
2310.00,0.0001
2297.00,0.0005
2284.00,0.0009
2271.00,0.0005
2258.00,0.0003
2245.00,0.0002
2232.00,0.0004
2219.00,0.0002
2206.00,-0.0001
2193.00,0.0001
2180.00,0.0000
2167.00,0.0006
2154.00,-0.0023
2141.00,-0.0014
2128.00,-0.0012
2115.00,-0.0001
2102.00,-0.0001
2089.00,-0.0003
2076.00,0.0000
2063.00,-0.0002
2050.00,0.0007
2037.00,0.0002
2024.00,-0.0004
2011.00,-0.0008
1998.00,-0.0004
1985.00,0.0005
1972.00,-0.0007
1959.00,-0.0009
1946.00,-0.0001
1933.00,-0.0004
1920.00,-0.0006
1907.00,-0.0006
1894.00,-0.0003
1881.00,0.0001
1868.00,0.0002
1855.00,-0.0002
1842.00,-0.0004
1829.00,-0.0002
1816.00,-0.0000
1803.00,0.0007
1790.00,0.0003
1777.00,0.0002
1764.00,0.0004
1751.00,0.0009
1738.00,0.0013
1725.00,0.0010
1712.00,0.0008
1699.00,0.0007
1686.00,0.0010
1673.00,0.0023
1660.00,0.0031
1647.00,0.0023
1634.00,0.0015
1621.00,0.0013
1608.00,0.0029
1595.00,0.0041
1582.00,0.0034
1569.00,0.0010
1556.00,0.0009
1543.00,0.0016
1530.00,0.0010
1517.00,0.0008
1504.00,0.0018
1491.00,0.0188
1478.00,0.0028
1465.00,0.0040
1452.00,0.0203
1439.00,0.0084
1426.00,0.0028
1413.00,0.0021
1400.00,0.0020
1387.00,0.0032
1374.00,0.0051
1361.00,0.0046
1348.00,0.0041
1335.00,0.0038
1322.00,0.0042
1309.00,0.0042
1296.00,0.0039
1283.00,0.0032
1270.00,0.0026
1257.00,0.0024
1244.00,0.0026
1231.00,0.0026
1218.00,0.0028
1205.00,0.0034
1192.00,0.0041
1179.00,0.0052
1166.00,0.0036
1153.00,0.0054
1140.00,0.0027
1127.00,0.0028
1114.00,0.0034
1101.00,0.0035
1088.00,0.0041
1075.00,0.0062
1062.00,0.0063
1049.00,0.0042
1036.00,0.0058
1023.00,0.0096
1010.00,0.0054
997.00,0.0043
984.00,0.0047
971.00,0.0047
958.00,0.0048
945.00,0.0047
932.00,0.0034
919.00,0.0038
906.00,0.0090
893.00,0.0034
880.00,0.0025
867.00,0.0021
854.00,0.0024
841.00,0.0048
828.00,0.0023
815.00,0.0023
802.00,0.0026
789.00,0.0047
776.00,0.0118
763.00,0.0303
750.00,0.0391
737.00,0.0174
724.00,0.0051
711.00,0.0110
698.00,0.1072
685.00,0.0434
672.00,0.0192
659.00,0.0116
646.00,0.0071
633.00,0.0078
620.00,0.0093
607.00,0.0074
594.00,0.0082
581.00,0.0106
568.00,0.0177
555.00,0.0256
542.00,0.0408
529.00,0.0306
516.00,0.0153
503.00,0.0101
490.00,0.0086
477.00,0.0069
464.00,0.0070
451.00,0.0066
438.00,0.0061
425.00,0.0058
412.00,0.0049
400.00,0.0025