Folder: Data/FTIR/Olivia (part 25)

File: 2025_08_15_1CBG_3PVP29_silicone_powder_scan1.csv
Created as New Dataset,Sample 121 By YargerLab Date Friday, August 15 2025
cm-1,A
4000.00,0.0056
3987.00,0.0056
3974.00,0.0056
3961.00,0.0056
3948.00,0.0055
3935.00,0.0055
3922.00,0.0055
3909.00,0.0056
3896.00,0.0055
3883.00,0.0053
3870.00,0.0054
3857.00,0.0055
3844.00,0.0055
3831.00,0.0054
3818.00,0.0054
3805.00,0.0054
3792.00,0.0055
3779.00,0.0056
3766.00,0.0055
3753.00,0.0054
3740.00,0.0052
3727.00,0.0054
3714.00,0.0054
3701.00,0.0055
3688.00,0.0057
3675.00,0.0061
3662.00,0.0067
3649.00,0.0069
3636.00,0.0080
3623.00,0.0090
3610.00,0.0100
3597.00,0.0113
3584.00,0.0129
3571.00,0.0145
3558.00,0.0161
3545.00,0.0179
3532.00,0.0193
3519.00,0.0206
3506.00,0.0219
3493.00,0.0230
3480.00,0.0241
3467.00,0.0250
3454.00,0.0258
3441.00,0.0266
3428.00,0.0273
3415.00,0.0278
3402.00,0.0284
3389.00,0.0289
3376.00,0.0294
3363.00,0.0298
3350.00,0.0300
3337.00,0.0303
3324.00,0.0307
3311.00,0.0309
3298.00,0.0314
3285.00,0.0318
3272.00,0.0313
3259.00,0.0314
3246.00,0.0310
3233.00,0.0305
3220.00,0.0300
3207.00,0.0295
3194.00,0.0289
3181.00,0.0280
3168.00,0.0269
3155.00,0.0257
3142.00,0.0246
3129.00,0.0238
3116.00,0.0228
3103.00,0.0216
3090.00,0.0203
3077.00,0.0193
3064.00,0.0185
3051.00,0.0178
3038.00,0.0171
3025.00,0.0169
3012.00,0.0172
2999.00,0.0203
2986.00,0.0266
2973.00,0.0322
2960.00,0.0402
2947.00,0.0404
2934.00,0.0442
2921.00,0.0484
2908.00,0.0422
2895.00,0.0375
2882.00,0.0353
2869.00,0.0353
2856.00,0.0360
2843.00,0.0274
2830.00,0.0209
2817.00,0.0166
2804.00,0.0146
2791.00,0.0135
2778.00,0.0130
2765.00,0.0125
2752.00,0.0124
2739.00,0.0125
2726.00,0.0126
2713.00,0.0124
2700.00,0.0122
2687.00,0.0119
2674.00,0.0117
2661.00,0.0117
2648.00,0.0115
2635.00,0.0111
2622.00,0.0107
2609.00,0.0104
2596.00,0.0102
2583.00,0.0102
2570.00,0.0100
2557.00,0.0097
2544.00,0.0094
2531.00,0.0094
2518.00,0.0092
2505.00,0.0089
2492.00,0.0088
2479.00,0.0087
2466.00,0.0086
2453.00,0.0087
2440.00,0.0084
2427.00,0.0084
2414.00,0.0083
2401.00,0.0083
2388.00,0.0082
2375.00,0.0077
2362.00,0.0077
2349.00,0.0079
2336.00,0.0083
2323.00,0.0091
2310.00,0.0083
2297.00,0.0087
2284.00,0.0090
2271.00,0.0087
2258.00,0.0085
2245.00,0.0086
2232.00,0.0084
2219.00,0.0084
2206.00,0.0084
2193.00,0.0086
2180.00,0.0081
2167.00,0.0088
2154.00,0.0064
2141.00,0.0069
2128.00,0.0072
2115.00,0.0084
2102.00,0.0081
2089.00,0.0077
2076.00,0.0080
2063.00,0.0076
2050.00,0.0081
2037.00,0.0071
2024.00,0.0064
2011.00,0.0069
1998.00,0.0069
1985.00,0.0077
1972.00,0.0061
1959.00,0.0062
1946.00,0.0066
1933.00,0.0068
1920.00,0.0070
1907.00,0.0071
1894.00,0.0070
1881.00,0.0071
1868.00,0.0073
1855.00,0.0071
1842.00,0.0071
1829.00,0.0071
1816.00,0.0068
1803.00,0.0072
1790.00,0.0071
1777.00,0.0073
1764.00,0.0077
1751.00,0.0082
1738.00,0.0089
1725.00,0.0109
1712.00,0.0154
1699.00,0.0359
1686.00,0.0925
1673.00,0.1478
1660.00,0.2018
1647.00,0.2077
1634.00,0.1289
1621.00,0.0861
1608.00,0.0618
1595.00,0.0619
1582.00,0.0427
1569.00,0.0299
1556.00,0.0251
1543.00,0.0239
1530.00,0.0227
1517.00,0.0230
1504.00,0.0291
1491.00,0.0465
1478.00,0.0286
1465.00,0.0727
1452.00,0.0700
1439.00,0.1122
1426.00,0.1449
1413.00,0.0875
1400.00,0.0541
1387.00,0.0553
1374.00,0.0672
1361.00,0.0504
1348.00,0.0431
1335.00,0.0414
1322.00,0.0577
1309.00,0.0546
1296.00,0.0933
1283.00,0.1424
1270.00,0.1293
1257.00,0.0825
1244.00,0.0590
1231.00,0.0730
1218.00,0.0740
1205.00,0.0591
1192.00,0.0515
1179.00,0.0516
1166.00,0.0665
1153.00,0.0543
1140.00,0.0430
1127.00,0.0414
1114.00,0.0455
1101.00,0.0499
1088.00,0.0527
1075.00,0.0523
1062.00,0.0487
1049.00,0.0812
1036.00,0.0636
1023.00,0.0582
1010.00,0.0462
997.00,0.0413
984.00,0.0369
971.00,0.0314
958.00,0.0270
945.00,0.0253
932.00,0.0313
919.00,0.0299
906.00,0.0327
893.00,0.0339
880.00,0.0328
867.00,0.0366
854.00,0.0492
841.00,0.0607
828.00,0.0625
815.00,0.0527
802.00,0.0508
789.00,0.0495
776.00,0.0486
763.00,0.0507
750.00,0.0615
737.00,0.0720
724.00,0.0636
711.00,0.0593
698.00,0.0618
685.00,0.0679
672.00,0.0758
659.00,0.0903
646.00,0.1023
633.00,0.0888
620.00,0.0815
607.00,0.0822
594.00,0.0882
581.00,0.1035
568.00,0.1073
555.00,0.0957
542.00,0.0888
529.00,0.0879
516.00,0.0848
503.00,0.0831
490.00,0.0853
477.00,0.0877
464.00,0.0876
451.00,0.0862
438.00,0.0809
425.00,0.0770
412.00,0.0769
400.00,0.0811

File: 2025_08_15_1CBG_3PVP29_silicone_powder_scan2.csv
Created as New Dataset,Sample 122 By YargerLab Date Friday, August 15 2025
cm-1,A
4000.00,0.0056
3987.00,0.0056
3974.00,0.0056
3961.00,0.0056
3948.00,0.0055
3935.00,0.0055
3922.00,0.0055
3909.00,0.0056
3896.00,0.0055
3883.00,0.0055
3870.00,0.0055
3857.00,0.0055
3844.00,0.0055
3831.00,0.0055
3818.00,0.0055
3805.00,0.0055
3792.00,0.0055
3779.00,0.0055
3766.00,0.0055
3753.00,0.0055
3740.00,0.0053
3727.00,0.0054
3714.00,0.0055
3701.00,0.0055
3688.00,0.0057
3675.00,0.0061
3662.00,0.0064
3649.00,0.0069
3636.00,0.0077
3623.00,0.0085
3610.00,0.0096
3597.00,0.0106
3584.00,0.0120
3571.00,0.0134
3558.00,0.0149
3545.00,0.0163
3532.00,0.0175
3519.00,0.0187
3506.00,0.0198
3493.00,0.0208
3480.00,0.0216
3467.00,0.0225
3454.00,0.0231
3441.00,0.0238
3428.00,0.0244
3415.00,0.0248
3402.00,0.0253
3389.00,0.0258
3376.00,0.0262
3363.00,0.0266
3350.00,0.0267
3337.00,0.0271
3324.00,0.0274
3311.00,0.0276
3298.00,0.0280
3285.00,0.0285
3272.00,0.0280
3259.00,0.0282
3246.00,0.0277
3233.00,0.0274
3220.00,0.0269
3207.00,0.0264
3194.00,0.0260
3181.00,0.0252
3168.00,0.0243
3155.00,0.0232
3142.00,0.0222
3129.00,0.0215
3116.00,0.0207
3103.00,0.0196
3090.00,0.0185
3077.00,0.0175
3064.00,0.0168
3051.00,0.0162
3038.00,0.0156
3025.00,0.0154
3012.00,0.0157
2999.00,0.0182
2986.00,0.0238
2973.00,0.0286
2960.00,0.0358
2947.00,0.0359
2934.00,0.0388
2921.00,0.0424
2908.00,0.0376
2895.00,0.0336
2882.00,0.0318
2869.00,0.0317
2856.00,0.0320
2843.00,0.0248
2830.00,0.0190
2817.00,0.0152
2804.00,0.0135
2791.00,0.0125
2778.00,0.0121
2765.00,0.0117
2752.00,0.0116
2739.00,0.0117
2726.00,0.0118
2713.00,0.0116
2700.00,0.0114
2687.00,0.0111
2674.00,0.0109
2661.00,0.0109
2648.00,0.0107
2635.00,0.0104
2622.00,0.0100
2609.00,0.0097
2596.00,0.0097
2583.00,0.0096
2570.00,0.0094
2557.00,0.0092
2544.00,0.0090
2531.00,0.0089
2518.00,0.0087
2505.00,0.0084
2492.00,0.0084
2479.00,0.0083
2466.00,0.0082
2453.00,0.0082
2440.00,0.0080
2427.00,0.0080
2414.00,0.0080
2401.00,0.0079
2388.00,0.0079
2375.00,0.0075
2362.00,0.0074
2349.00,0.0075
2336.00,0.0079
2323.00,0.0087
2310.00,0.0080
2297.00,0.0083
2284.00,0.0086
2271.00,0.0083
2258.00,0.0080
2245.00,0.0081
2232.00,0.0081
2219.00,0.0082
2206.00,0.0081
2193.00,0.0082
2180.00,0.0074
2167.00,0.0085
2154.00,0.0063
2141.00,0.0065
2128.00,0.0069
2115.00,0.0079
2102.00,0.0078
2089.00,0.0074
2076.00,0.0076
2063.00,0.0073
2050.00,0.0079
2037.00,0.0071
2024.00,0.0065
2011.00,0.0065
1998.00,0.0066
1985.00,0.0073
1972.00,0.0060
1959.00,0.0060
1946.00,0.0064
1933.00,0.0066
1920.00,0.0068
1907.00,0.0069
1894.00,0.0068
1881.00,0.0068
1868.00,0.0069
1855.00,0.0068
1842.00,0.0067
1829.00,0.0068
1816.00,0.0065
1803.00,0.0068
1790.00,0.0067
1777.00,0.0069
1764.00,0.0071
1751.00,0.0074
1738.00,0.0079
1725.00,0.0097
1712.00,0.0140
1699.00,0.0328
1686.00,0.0840
1673.00,0.1315
1660.00,0.1768
1647.00,0.1825
1634.00,0.1137
1621.00,0.0767
1608.00,0.0555
1595.00,0.0562
1582.00,0.0389
1569.00,0.0274
1556.00,0.0228
1543.00,0.0219
1530.00,0.0209
1517.00,0.0211
1504.00,0.0263
1491.00,0.0420
1478.00,0.0259
1465.00,0.0646
1452.00,0.0626
1439.00,0.1001
1426.00,0.1297
1413.00,0.0795
1400.00,0.0488
1387.00,0.0501
1374.00,0.0610
1361.00,0.0460
1348.00,0.0394
1335.00,0.0377
1322.00,0.0521
1309.00,0.0497
1296.00,0.0831
1283.00,0.1278
1270.00,0.1166
1257.00,0.0750
1244.00,0.0535
1231.00,0.0659
1218.00,0.0667
1205.00,0.0533
1192.00,0.0463
1179.00,0.0463
1166.00,0.0598
1153.00,0.0488
1140.00,0.0384
1127.00,0.0367
1114.00,0.0404
1101.00,0.0445
1088.00,0.0470
1075.00,0.0469
1062.00,0.0434
1049.00,0.0732
1036.00,0.0561
1023.00,0.0518
1010.00,0.0416
997.00,0.0376
984.00,0.0338
971.00,0.0286
958.00,0.0246
945.00,0.0231
932.00,0.0285
919.00,0.0273
906.00,0.0300
893.00,0.0310
880.00,0.0299
867.00,0.0333
854.00,0.0446
841.00,0.0549
828.00,0.0565
815.00,0.0477
802.00,0.0458
789.00,0.0445
776.00,0.0438
763.00,0.0456
750.00,0.0552
737.00,0.0644
724.00,0.0570
711.00,0.0531
698.00,0.0551
685.00,0.0606
672.00,0.0678
659.00,0.0806
646.00,0.0913
633.00,0.0789
620.00,0.0725
607.00,0.0735
594.00,0.0786
581.00,0.0917
568.00,0.0954
555.00,0.0844
542.00,0.0788
529.00,0.0774
516.00,0.0757
503.00,0.0741
490.00,0.0758
477.00,0.0777
464.00,0.0780
451.00,0.0767
438.00,0.0723
425.00,0.0691
412.00,0.0698
400.00,0.0699

File: 2025_08_15_1CBG_3PVP29_silicone_powder_scan3.csv
Created as New Dataset,Sample 123 By YargerLab Date Friday, August 15 2025
cm-1,A
4000.00,0.0050
3987.00,0.0050
3974.00,0.0049
3961.00,0.0050
3948.00,0.0049
3935.00,0.0049
3922.00,0.0049
3909.00,0.0050
3896.00,0.0049
3883.00,0.0049
3870.00,0.0049
3857.00,0.0051
3844.00,0.0049
3831.00,0.0049
3818.00,0.0050
3805.00,0.0051
3792.00,0.0048
3779.00,0.0049
3766.00,0.0049
3753.00,0.0051
3740.00,0.0048
3727.00,0.0048
3714.00,0.0049
3701.00,0.0048
3688.00,0.0052
3675.00,0.0057
3662.00,0.0060
3649.00,0.0065
3636.00,0.0074
3623.00,0.0084
3610.00,0.0096
3597.00,0.0108
3584.00,0.0124
3571.00,0.0140
3558.00,0.0157
3545.00,0.0174
3532.00,0.0188
3519.00,0.0200
3506.00,0.0214
3493.00,0.0224
3480.00,0.0236
3467.00,0.0245
3454.00,0.0252
3441.00,0.0260
3428.00,0.0267
3415.00,0.0272
3402.00,0.0278
3389.00,0.0284
3376.00,0.0288
3363.00,0.0292
3350.00,0.0294
3337.00,0.0298
3324.00,0.0303
3311.00,0.0305
3298.00,0.0309
3285.00,0.0314
3272.00,0.0309
3259.00,0.0310
3246.00,0.0306
3233.00,0.0301
3220.00,0.0296
3207.00,0.0290
3194.00,0.0285
3181.00,0.0275
3168.00,0.0265
3155.00,0.0252
3142.00,0.0241
3129.00,0.0232
3116.00,0.0222
3103.00,0.0209
3090.00,0.0197
3077.00,0.0186
3064.00,0.0177
3051.00,0.0171
3038.00,0.0164
3025.00,0.0162
3012.00,0.0165
2999.00,0.0195
2986.00,0.0261
2973.00,0.0317
2960.00,0.0399
2947.00,0.0399
2934.00,0.0432
2921.00,0.0474
2908.00,0.0416
2895.00,0.0370
2882.00,0.0348
2869.00,0.0347
2856.00,0.0350
2843.00,0.0265
2830.00,0.0199
2817.00,0.0156
2804.00,0.0136
2791.00,0.0125
2778.00,0.0119
2765.00,0.0114
2752.00,0.0114
2739.00,0.0115
2726.00,0.0116
2713.00,0.0114
2700.00,0.0111
2687.00,0.0109
2674.00,0.0106
2661.00,0.0106
2648.00,0.0103
2635.00,0.0099
2622.00,0.0095
2609.00,0.0092
2596.00,0.0091
2583.00,0.0090
2570.00,0.0088
2557.00,0.0086
2544.00,0.0084
2531.00,0.0082
2518.00,0.0080
2505.00,0.0078
2492.00,0.0077
2479.00,0.0076
2466.00,0.0075
2453.00,0.0075
2440.00,0.0074
2427.00,0.0073
2414.00,0.0073
2401.00,0.0072
2388.00,0.0072
2375.00,0.0066
2362.00,0.0065
2349.00,0.0063
2336.00,0.0070
2323.00,0.0077
2310.00,0.0071
2297.00,0.0075
2284.00,0.0078
2271.00,0.0075
2258.00,0.0074
2245.00,0.0073
2232.00,0.0073
2219.00,0.0074
2206.00,0.0073
2193.00,0.0075
2180.00,0.0069
2167.00,0.0078
2154.00,0.0056
2141.00,0.0059
2128.00,0.0061
2115.00,0.0073
2102.00,0.0069
2089.00,0.0067
2076.00,0.0068
2063.00,0.0065
2050.00,0.0069
2037.00,0.0060
2024.00,0.0056
2011.00,0.0058
1998.00,0.0057
1985.00,0.0066
1972.00,0.0051
1959.00,0.0052
1946.00,0.0057
1933.00,0.0058
1920.00,0.0060
1907.00,0.0062
1894.00,0.0061
1881.00,0.0061
1868.00,0.0063
1855.00,0.0061
1842.00,0.0061
1829.00,0.0062
1816.00,0.0060
1803.00,0.0063
1790.00,0.0062
1777.00,0.0065
1764.00,0.0068
1751.00,0.0073
1738.00,0.0080
1725.00,0.0102
1712.00,0.0153
1699.00,0.0369
1686.00,0.0951
1673.00,0.1510
1660.00,0.2054
1647.00,0.2116
1634.00,0.1287
1621.00,0.0851
1608.00,0.0607
1595.00,0.0617
1582.00,0.0412
1569.00,0.0284
1556.00,0.0236
1543.00,0.0226
1530.00,0.0216
1517.00,0.0219
1504.00,0.0285
1491.00,0.0463
1478.00,0.0280
1465.00,0.0732
1452.00,0.0705
1439.00,0.1143
1426.00,0.1487
1413.00,0.0883
1400.00,0.0534
1387.00,0.0552
1374.00,0.0677
1361.00,0.0499
1348.00,0.0425
1335.00,0.0408
1322.00,0.0580
1309.00,0.0548
1296.00,0.0944
1283.00,0.1456
1270.00,0.1318
1257.00,0.0823
1244.00,0.0578
1231.00,0.0726
1218.00,0.0733
1205.00,0.0573
1192.00,0.0492
1179.00,0.0495
1166.00,0.0652
1153.00,0.0519
1140.00,0.0399
1127.00,0.0381
1114.00,0.0426
1101.00,0.0472
1088.00,0.0503
1075.00,0.0500
1062.00,0.0463
1049.00,0.0812
1036.00,0.0619
1023.00,0.0565
1010.00,0.0439
997.00,0.0392
984.00,0.0349
971.00,0.0290
958.00,0.0244
945.00,0.0228
932.00,0.0292
919.00,0.0277
906.00,0.0308
893.00,0.0320
880.00,0.0309
867.00,0.0348
854.00,0.0481
841.00,0.0599
828.00,0.0617
815.00,0.0507
802.00,0.0487
789.00,0.0474
776.00,0.0468
763.00,0.0491
750.00,0.0603
737.00,0.0708
724.00,0.0619
711.00,0.0576
698.00,0.0599
685.00,0.0663
672.00,0.0746
659.00,0.0895
646.00,0.1015
633.00,0.0870
620.00,0.0793
607.00,0.0807
594.00,0.0865
581.00,0.1017
568.00,0.1056
555.00,0.0928
542.00,0.0861
529.00,0.0844
516.00,0.0819
503.00,0.0808
490.00,0.0822
477.00,0.0837
464.00,0.0840
451.00,0.0824
438.00,0.0775
425.00,0.0743
412.00,0.0742
400.00,0.0771

File: 2025_08_15_1CBG_3PVP29_silicone_scan1.csv
Created as New Dataset,Sample 118 By YargerLab Date Friday, August 15 2025
cm-1,A
4000.00,0.0020
3987.00,0.0022
3974.00,0.0021
3961.00,0.0021
3948.00,0.0020
3935.00,0.0020
3922.00,0.0020
3909.00,0.0020
3896.00,0.0020
3883.00,0.0021
3870.00,0.0021
3857.00,0.0022
3844.00,0.0021
3831.00,0.0021
3818.00,0.0022
3805.00,0.0021
3792.00,0.0020
3779.00,0.0020
3766.00,0.0020
3753.00,0.0022
3740.00,0.0021
3727.00,0.0018
3714.00,0.0021
3701.00,0.0020
3688.00,0.0026
3675.00,0.0033
3662.00,0.0035
3649.00,0.0045
3636.00,0.0053
3623.00,0.0065
3610.00,0.0082
3597.00,0.0099
3584.00,0.0121
3571.00,0.0141
3558.00,0.0165
3545.00,0.0187
3532.00,0.0204
3519.00,0.0223
3506.00,0.0242
3493.00,0.0260
3480.00,0.0279
3467.00,0.0294
3454.00,0.0307
3441.00,0.0320
3428.00,0.0331
3415.00,0.0341
3402.00,0.0351
3389.00,0.0364
3376.00,0.0375
3363.00,0.0385
3350.00,0.0390
3337.00,0.0399
3324.00,0.0406
3311.00,0.0410
3298.00,0.0416
3285.00,0.0423
3272.00,0.0415
3259.00,0.0416
3246.00,0.0408
3233.00,0.0400
3220.00,0.0391
3207.00,0.0384
3194.00,0.0372
3181.00,0.0357
3168.00,0.0339
3155.00,0.0319
3142.00,0.0302
3129.00,0.0288
3116.00,0.0271
3103.00,0.0252
3090.00,0.0232
3077.00,0.0216
3064.00,0.0204
3051.00,0.0196
3038.00,0.0187
3025.00,0.0187
3012.00,0.0198
2999.00,0.0261
2986.00,0.0382
2973.00,0.0478
2960.00,0.0602
2947.00,0.0610
2934.00,0.0669
2921.00,0.0738
2908.00,0.0624
2895.00,0.0544
2882.00,0.0509
2869.00,0.0501
2856.00,0.0503
2843.00,0.0351
2830.00,0.0253
2817.00,0.0189
2804.00,0.0145
2791.00,0.0123
2778.00,0.0112
2765.00,0.0104
2752.00,0.0101
2739.00,0.0103
2726.00,0.0103
2713.00,0.0099
2700.00,0.0096
2687.00,0.0092
2674.00,0.0088
2661.00,0.0087
2648.00,0.0083
2635.00,0.0078
2622.00,0.0072
2609.00,0.0068
2596.00,0.0067
2583.00,0.0066
2570.00,0.0063
2557.00,0.0059
2544.00,0.0057
2531.00,0.0055
2518.00,0.0052
2505.00,0.0050
2492.00,0.0047
2479.00,0.0045
2466.00,0.0043
2453.00,0.0043
2440.00,0.0041
2427.00,0.0040
2414.00,0.0041
2401.00,0.0041
2388.00,0.0038
2375.00,0.0032
2362.00,0.0031
2349.00,0.0033
2336.00,0.0037
2323.00,0.0047
2310.00,0.0039
2297.00,0.0041
2284.00,0.0045
2271.00,0.0041
2258.00,0.0038
2245.00,0.0039
2232.00,0.0038
2219.00,0.0037
2206.00,0.0037
2193.00,0.0039
2180.00,0.0032
2167.00,0.0045
2154.00,0.0011
2141.00,0.0023
2128.00,0.0027
2115.00,0.0036
2102.00,0.0030
2089.00,0.0028
2076.00,0.0030
2063.00,0.0026
2050.00,0.0034
2037.00,0.0029
2024.00,0.0019
2011.00,0.0021
1998.00,0.0019
1985.00,0.0027
1972.00,0.0015
1959.00,0.0013
1946.00,0.0020
1933.00,0.0022
1920.00,0.0027
1907.00,0.0028
1894.00,0.0027
1881.00,0.0028
1868.00,0.0030
1855.00,0.0031
1842.00,0.0032
1829.00,0.0036
1816.00,0.0034
1803.00,0.0039
1790.00,0.0042
1777.00,0.0049
1764.00,0.0059
1751.00,0.0070
1738.00,0.0092
1725.00,0.0135
1712.00,0.0233
1699.00,0.0622
1686.00,0.1646
1673.00,0.2584
1660.00,0.3444
1647.00,0.3334
1634.00,0.1744
1621.00,0.1085
1608.00,0.0755
1595.00,0.0802
1582.00,0.0478
1569.00,0.0307
1556.00,0.0249
1543.00,0.0245
1530.00,0.0234
1517.00,0.0247
1504.00,0.0366
1491.00,0.0632
1478.00,0.0371
1465.00,0.1091
1452.00,0.1046
1439.00,0.1735
1426.00,0.2331
1413.00,0.1277
1400.00,0.0723
1387.00,0.0773
1374.00,0.0959
1361.00,0.0662
1348.00,0.0549
1335.00,0.0539
1322.00,0.0814
1309.00,0.0757
1296.00,0.1416
1283.00,0.2275
1270.00,0.1998
1257.00,0.1097
1244.00,0.0744
1231.00,0.0992
1218.00,0.0966
1205.00,0.0689
1192.00,0.0557
1179.00,0.0572
1166.00,0.0815
1153.00,0.0568
1140.00,0.0373
1127.00,0.0329
1114.00,0.0395
1101.00,0.0449
1088.00,0.0510
1075.00,0.0523
1062.00,0.0482
1049.00,0.1060
1036.00,0.0936
1023.00,0.0762
1010.00,0.0498
997.00,0.0446
984.00,0.0381
971.00,0.0295
958.00,0.0231
945.00,0.0209
932.00,0.0309
919.00,0.0279
906.00,0.0325
893.00,0.0345
880.00,0.0323
867.00,0.0377
854.00,0.0588
841.00,0.0766
828.00,0.0757
815.00,0.0538
802.00,0.0488
789.00,0.0505
776.00,0.0533
763.00,0.0582
750.00,0.0753
737.00,0.0902
724.00,0.0752
711.00,0.0682
698.00,0.0717
685.00,0.0817
672.00,0.0939
659.00,0.1165
646.00,0.1351
633.00,0.1092
620.00,0.0969
607.00,0.0985
594.00,0.1074
581.00,0.1308
568.00,0.1348
555.00,0.1124
542.00,0.1014
529.00,0.0978
516.00,0.0935
503.00,0.0904
490.00,0.0927
477.00,0.0941
464.00,0.0920
451.00,0.0904
438.00,0.0846
425.00,0.0816
412.00,0.0795
400.00,0.0817

File: 2025_08_15_1CBG_3PVP29_silicone_scan2.csv
Created as New Dataset,Sample 119 By YargerLab Date Friday, August 15 2025
cm-1,A
4000.00,0.0020
3987.00,0.0020
3974.00,0.0019
3961.00,0.0020
3948.00,0.0019
3935.00,0.0019
3922.00,0.0017
3909.00,0.0018
3896.00,0.0017
3883.00,0.0017
3870.00,0.0017
3857.00,0.0016
3844.00,0.0018
3831.00,0.0018
3818.00,0.0016
3805.00,0.0017
3792.00,0.0018
3779.00,0.0019
3766.00,0.0018
3753.00,0.0016
3740.00,0.0016
3727.00,0.0016
3714.00,0.0017
3701.00,0.0018
3688.00,0.0020
3675.00,0.0026
3662.00,0.0031
3649.00,0.0036
3636.00,0.0045
3623.00,0.0055
3610.00,0.0068
3597.00,0.0084
3584.00,0.0101
3571.00,0.0119
3558.00,0.0140
3545.00,0.0157
3532.00,0.0172
3519.00,0.0189
3506.00,0.0205
3493.00,0.0220
3480.00,0.0236
3467.00,0.0249
3454.00,0.0259
3441.00,0.0270
3428.00,0.0279
3415.00,0.0289
3402.00,0.0297
3389.00,0.0308
3376.00,0.0316
3363.00,0.0325
3350.00,0.0331
3337.00,0.0338
3324.00,0.0344
3311.00,0.0348
3298.00,0.0353
3285.00,0.0359
3272.00,0.0353
3259.00,0.0353
3246.00,0.0347
3233.00,0.0340
3220.00,0.0334
3207.00,0.0326
3194.00,0.0317
3181.00,0.0305
3168.00,0.0290
3155.00,0.0273
3142.00,0.0258
3129.00,0.0247
3116.00,0.0233
3103.00,0.0217
3090.00,0.0200
3077.00,0.0186
3064.00,0.0176
3051.00,0.0168
3038.00,0.0161
3025.00,0.0161
3012.00,0.0170
2999.00,0.0222
2986.00,0.0322
2973.00,0.0402
2960.00,0.0505
2947.00,0.0510
2934.00,0.0558
2921.00,0.0616
2908.00,0.0526
2895.00,0.0458
2882.00,0.0428
2869.00,0.0422
2856.00,0.0424
2843.00,0.0299
2830.00,0.0217
2817.00,0.0163
2804.00,0.0126
2791.00,0.0108
2778.00,0.0098
2765.00,0.0091
2752.00,0.0089
2739.00,0.0090
2726.00,0.0091
2713.00,0.0088
2700.00,0.0085
2687.00,0.0082
2674.00,0.0078
2661.00,0.0078
2648.00,0.0075
2635.00,0.0070
2622.00,0.0065
2609.00,0.0061
2596.00,0.0061
2583.00,0.0060
2570.00,0.0056
2557.00,0.0054
2544.00,0.0052
2531.00,0.0052
2518.00,0.0048
2505.00,0.0046
2492.00,0.0044
2479.00,0.0041
2466.00,0.0040
2453.00,0.0040
2440.00,0.0039
2427.00,0.0037
2414.00,0.0038
2401.00,0.0038
2388.00,0.0036
2375.00,0.0033
2362.00,0.0034
2349.00,0.0035
2336.00,0.0038
2323.00,0.0046
2310.00,0.0038
2297.00,0.0041
2284.00,0.0043
2271.00,0.0039
2258.00,0.0037
2245.00,0.0037
2232.00,0.0037
2219.00,0.0038
2206.00,0.0036
2193.00,0.0040
2180.00,0.0033
2167.00,0.0043
2154.00,0.0014
2141.00,0.0022
2128.00,0.0026
2115.00,0.0034
2102.00,0.0030
2089.00,0.0027
2076.00,0.0029
2063.00,0.0026
2050.00,0.0035
2037.00,0.0028
2024.00,0.0020
2011.00,0.0021
1998.00,0.0019
1985.00,0.0029
1972.00,0.0013
1959.00,0.0013
1946.00,0.0021
1933.00,0.0021
1920.00,0.0026
1907.00,0.0027
1894.00,0.0026
1881.00,0.0026
1868.00,0.0029
1855.00,0.0028
1842.00,0.0030
1829.00,0.0032
1816.00,0.0031
1803.00,0.0035
1790.00,0.0037
1777.00,0.0043
1764.00,0.0050
1751.00,0.0062
1738.00,0.0077
1725.00,0.0113
1712.00,0.0194
1699.00,0.0511
1686.00,0.1357
1673.00,0.2072
1660.00,0.2716
1647.00,0.2644
1634.00,0.1408
1621.00,0.0893
1608.00,0.0629
1595.00,0.0676
1582.00,0.0403
1569.00,0.0260
1556.00,0.0213
1543.00,0.0209
1530.00,0.0200
1517.00,0.0209
1504.00,0.0307
1491.00,0.0532
1478.00,0.0311
1465.00,0.0897
1452.00,0.0866
1439.00,0.1429
1426.00,0.1895
1413.00,0.1055
1400.00,0.0606
1387.00,0.0647
1374.00,0.0799
1361.00,0.0553
1348.00,0.0463
1335.00,0.0453
1322.00,0.0680
1309.00,0.0631
1296.00,0.1164
1283.00,0.1846
1270.00,0.1627
1257.00,0.0906
1244.00,0.0617
1231.00,0.0823
1218.00,0.0804
1205.00,0.0577
1192.00,0.0467
1179.00,0.0480
1166.00,0.0686
1153.00,0.0480
1140.00,0.0317
1127.00,0.0280
1114.00,0.0336
1101.00,0.0384
1088.00,0.0436
1075.00,0.0446
1062.00,0.0410
1049.00,0.0898
1036.00,0.0794
1023.00,0.0646
1010.00,0.0424
997.00,0.0380
984.00,0.0326
971.00,0.0254
958.00,0.0198
945.00,0.0179
932.00,0.0264
919.00,0.0239
906.00,0.0277
893.00,0.0292
880.00,0.0274
867.00,0.0319
854.00,0.0493
841.00,0.0643
828.00,0.0639
815.00,0.0454
802.00,0.0411
789.00,0.0425
776.00,0.0448
763.00,0.0486
750.00,0.0628
737.00,0.0750
724.00,0.0624
711.00,0.0568
698.00,0.0595
685.00,0.0678
672.00,0.0778
659.00,0.0959
646.00,0.1107
633.00,0.0896
620.00,0.0795
607.00,0.0808
594.00,0.0880
581.00,0.1068
568.00,0.1107
555.00,0.0923
542.00,0.0840
529.00,0.0811
516.00,0.0780
503.00,0.0756
490.00,0.0773
477.00,0.0789
464.00,0.0770
451.00,0.0765
438.00,0.0702
425.00,0.0671
412.00,0.0652
400.00,0.0687

File: 2025_08_15_1CBG_3PVP29_silicone_scan3.csv
Created as New Dataset,Sample 120 By YargerLab Date Friday, August 15 2025
cm-1,A
4000.00,0.0015
3987.00,0.0015
3974.00,0.0015
3961.00,0.0015
3948.00,0.0014
3935.00,0.0014
3922.00,0.0013
3909.00,0.0014
3896.00,0.0013
3883.00,0.0013
3870.00,0.0013
3857.00,0.0014
3844.00,0.0014
3831.00,0.0013
3818.00,0.0014
3805.00,0.0014
3792.00,0.0014
3779.00,0.0014
3766.00,0.0013
3753.00,0.0014
3740.00,0.0013
3727.00,0.0012
3714.00,0.0014
3701.00,0.0014
3688.00,0.0018
3675.00,0.0024
3662.00,0.0027
3649.00,0.0034
3636.00,0.0044
3623.00,0.0055
3610.00,0.0070
3597.00,0.0086
3584.00,0.0106
3571.00,0.0127
3558.00,0.0149
3545.00,0.0169
3532.00,0.0187
3519.00,0.0206
3506.00,0.0225
3493.00,0.0244
3480.00,0.0262
3467.00,0.0279
3454.00,0.0292
3441.00,0.0305
3428.00,0.0317
3415.00,0.0328
3402.00,0.0338
3389.00,0.0351
3376.00,0.0362
3363.00,0.0371
3350.00,0.0377
3337.00,0.0384
3324.00,0.0391
3311.00,0.0395
3298.00,0.0401
3285.00,0.0407
3272.00,0.0399
3259.00,0.0400
3246.00,0.0392
3233.00,0.0384
3220.00,0.0375
3207.00,0.0366
3194.00,0.0355
3181.00,0.0340
3168.00,0.0323
3155.00,0.0303
3142.00,0.0286
3129.00,0.0272
3116.00,0.0257
3103.00,0.0237
3090.00,0.0218
3077.00,0.0203
3064.00,0.0191
3051.00,0.0183
3038.00,0.0175
3025.00,0.0175
3012.00,0.0185
2999.00,0.0245
2986.00,0.0359
2973.00,0.0450
2960.00,0.0567
2947.00,0.0572
2934.00,0.0629
2921.00,0.0693
2908.00,0.0589
2895.00,0.0513
2882.00,0.0478
2869.00,0.0469
2856.00,0.0470
2843.00,0.0330
2830.00,0.0242
2817.00,0.0184
2804.00,0.0138
2791.00,0.0115
2778.00,0.0103
2765.00,0.0095
2752.00,0.0092
2739.00,0.0093
2726.00,0.0094
2713.00,0.0090
2700.00,0.0086
2687.00,0.0083
2674.00,0.0079
2661.00,0.0078
2648.00,0.0074
2635.00,0.0069
2622.00,0.0064
2609.00,0.0061
2596.00,0.0059
2583.00,0.0058
2570.00,0.0055
2557.00,0.0052
2544.00,0.0049
2531.00,0.0049
2518.00,0.0046
2505.00,0.0043
2492.00,0.0041
2479.00,0.0039
2466.00,0.0036
2453.00,0.0037
2440.00,0.0034
2427.00,0.0033
2414.00,0.0033
2401.00,0.0035
2388.00,0.0031
2375.00,0.0029
2362.00,0.0029
2349.00,0.0030
2336.00,0.0033
2323.00,0.0043
2310.00,0.0036
2297.00,0.0036
2284.00,0.0038
2271.00,0.0034
2258.00,0.0032
2245.00,0.0032
2232.00,0.0034
2219.00,0.0033
2206.00,0.0034
2193.00,0.0034
2180.00,0.0030
2167.00,0.0038
2154.00,0.0007
2141.00,0.0016
2128.00,0.0021
2115.00,0.0030
2102.00,0.0024
2089.00,0.0023
2076.00,0.0024
2063.00,0.0021
2050.00,0.0027
2037.00,0.0021
2024.00,0.0017
2011.00,0.0015
1998.00,0.0014
1985.00,0.0021
1972.00,0.0011
1959.00,0.0009
1946.00,0.0015
1933.00,0.0017
1920.00,0.0021
1907.00,0.0024
1894.00,0.0021
1881.00,0.0022
1868.00,0.0026
1855.00,0.0025
1842.00,0.0027
1829.00,0.0030
1816.00,0.0028
1803.00,0.0034
1790.00,0.0036
1777.00,0.0043
1764.00,0.0051
1751.00,0.0065
1738.00,0.0081
1725.00,0.0124
1712.00,0.0216
1699.00,0.0569
1686.00,0.1511
1673.00,0.2365
1660.00,0.3180
1647.00,0.3081
1634.00,0.1603
1621.00,0.0998
1608.00,0.0696
1595.00,0.0747
1582.00,0.0438
1569.00,0.0281
1556.00,0.0229
1543.00,0.0225
1530.00,0.0217
1517.00,0.0230
1504.00,0.0342
1491.00,0.0593
1478.00,0.0349
1465.00,0.1024
1452.00,0.0980
1439.00,0.1628
1426.00,0.2163
1413.00,0.1183
1400.00,0.0679
1387.00,0.0725
1374.00,0.0896
1361.00,0.0614
1348.00,0.0513
1335.00,0.0504
1322.00,0.0763
1309.00,0.0705
1296.00,0.1330
1283.00,0.2098
1270.00,0.1837
1257.00,0.1007
1244.00,0.0682
1231.00,0.0918
1218.00,0.0895
1205.00,0.0636
1192.00,0.0514
1179.00,0.0528
1166.00,0.0758
1153.00,0.0524
1140.00,0.0343
1127.00,0.0305
1114.00,0.0371
1101.00,0.0422
1088.00,0.0480
1075.00,0.0490
1062.00,0.0452
1049.00,0.1011
1036.00,0.0960
1023.00,0.0766
1010.00,0.0479
997.00,0.0421
984.00,0.0358
971.00,0.0275
958.00,0.0215
945.00,0.0193
932.00,0.0287
919.00,0.0258
906.00,0.0302
893.00,0.0319
880.00,0.0300
867.00,0.0351
854.00,0.0549
841.00,0.0716
828.00,0.0712
815.00,0.0503
802.00,0.0459
789.00,0.0475
776.00,0.0501
763.00,0.0548
750.00,0.0710
737.00,0.0850
724.00,0.0706
711.00,0.0642
698.00,0.0675
685.00,0.0769
672.00,0.0887
659.00,0.1094
646.00,0.1267
633.00,0.1025
620.00,0.0909
607.00,0.0925
594.00,0.1006
581.00,0.1222
568.00,0.1260
555.00,0.1049
542.00,0.0944
529.00,0.0915
516.00,0.0877
503.00,0.0847
490.00,0.0863
477.00,0.0883
464.00,0.0848
451.00,0.0843
438.00,0.0783
425.00,0.0745
412.00,0.0728
400.00,0.0794