Folder: Data/FTIR/Olivia (part 26)

File: 2025_08_15_Polystyrene_film_scan1.csv
Created as New Dataset,Sample 112 By YargerLab Date Friday, August 15 2025
cm-1,A
4000.00,0.0014
3987.00,0.0013
3974.00,0.0013
3961.00,0.0013
3948.00,0.0013
3935.00,0.0013
3922.00,0.0013
3909.00,0.0013
3896.00,0.0013
3883.00,0.0013
3870.00,0.0013
3857.00,0.0012
3844.00,0.0012
3831.00,0.0013
3818.00,0.0012
3805.00,0.0013
3792.00,0.0012
3779.00,0.0012
3766.00,0.0012
3753.00,0.0012
3740.00,0.0010
3727.00,0.0012
3714.00,0.0012
3701.00,0.0011
3688.00,0.0011
3675.00,0.0012
3662.00,0.0012
3649.00,0.0013
3636.00,0.0013
3623.00,0.0014
3610.00,0.0014
3597.00,0.0015
3584.00,0.0015
3571.00,0.0016
3558.00,0.0017
3545.00,0.0019
3532.00,0.0019
3519.00,0.0021
3506.00,0.0022
3493.00,0.0023
3480.00,0.0023
3467.00,0.0025
3454.00,0.0025
3441.00,0.0025
3428.00,0.0025
3415.00,0.0025
3402.00,0.0025
3389.00,0.0025
3376.00,0.0024
3363.00,0.0025
3350.00,0.0024
3337.00,0.0023
3324.00,0.0023
3311.00,0.0023
3298.00,0.0022
3285.00,0.0022
3272.00,0.0022
3259.00,0.0021
3246.00,0.0021
3233.00,0.0021
3220.00,0.0019
3207.00,0.0021
3194.00,0.0020
3181.00,0.0019
3168.00,0.0020
3155.00,0.0019
3142.00,0.0017
3129.00,0.0018
3116.00,0.0022
3103.00,0.0040
3090.00,0.0057
3077.00,0.0074
3064.00,0.0116
3051.00,0.0079
3038.00,0.0093
3025.00,0.0245
3012.00,0.0068
2999.00,0.0067
2986.00,0.0042
2973.00,0.0049
2960.00,0.0069
2947.00,0.0116
2934.00,0.0233
2921.00,0.0314
2908.00,0.0229
2895.00,0.0138
2882.00,0.0098
2869.00,0.0082
2856.00,0.0124
2843.00,0.0107
2830.00,0.0040
2817.00,0.0031
2804.00,0.0028
2791.00,0.0025
2778.00,0.0024
2765.00,0.0022
2752.00,0.0021
2739.00,0.0021
2726.00,0.0022
2713.00,0.0022
2700.00,0.0021
2687.00,0.0021
2674.00,0.0021
2661.00,0.0022
2648.00,0.0022
2635.00,0.0023
2622.00,0.0021
2609.00,0.0021
2596.00,0.0019
2583.00,0.0019
2570.00,0.0017
2557.00,0.0016
2544.00,0.0017
2531.00,0.0016
2518.00,0.0016
2505.00,0.0015
2492.00,0.0015
2479.00,0.0015
2466.00,0.0013
2453.00,0.0013
2440.00,0.0013
2427.00,0.0012
2414.00,0.0011
2401.00,0.0011
2388.00,0.0011
2375.00,0.0011
2362.00,0.0013
2349.00,0.0015
2336.00,0.0017
2323.00,0.0019
2310.00,0.0017
2297.00,0.0015
2284.00,0.0016
2271.00,0.0013
2258.00,0.0015
2245.00,0.0011
2232.00,0.0012
2219.00,0.0010
2206.00,0.0010
2193.00,0.0012
2180.00,0.0008
2167.00,0.0010
2154.00,-0.0004
2141.00,0.0001
2128.00,0.0002
2115.00,0.0007
2102.00,0.0006
2089.00,0.0006
2076.00,0.0007
2063.00,0.0003
2050.00,0.0007
2037.00,0.0001
2024.00,-0.0001
2011.00,0.0004
1998.00,0.0003
1985.00,0.0008
1972.00,0.0006
1959.00,0.0021
1946.00,0.0035
1933.00,0.0020
1920.00,0.0010
1907.00,0.0009
1894.00,0.0017
1881.00,0.0029
1868.00,0.0033
1855.00,0.0016
1842.00,0.0011
1829.00,0.0015
1816.00,0.0027
1803.00,0.0041
1790.00,0.0025
1777.00,0.0024
1764.00,0.0029
1751.00,0.0048
1738.00,0.0061
1725.00,0.0048
1712.00,0.0038
1699.00,0.0040
1686.00,0.0058
1673.00,0.0077
1660.00,0.0073
1647.00,0.0051
1634.00,0.0037
1621.00,0.0040
1608.00,0.0109
1595.00,0.0126
1582.00,0.0102
1569.00,0.0031
1556.00,0.0030
1543.00,0.0041
1530.00,0.0031
1517.00,0.0030
1504.00,0.0061
1491.00,0.0538
1478.00,0.0074
1465.00,0.0088
1452.00,0.0646
1439.00,0.0234
1426.00,0.0082
1413.00,0.0058
1400.00,0.0057
1387.00,0.0094
1374.00,0.0143
1361.00,0.0132
1348.00,0.0116
1335.00,0.0107
1322.00,0.0114
1309.00,0.0117
1296.00,0.0107
1283.00,0.0096
1270.00,0.0076
1257.00,0.0068
1244.00,0.0070
1231.00,0.0069
1218.00,0.0070
1205.00,0.0086
1192.00,0.0106
1179.00,0.0132
1166.00,0.0087
1153.00,0.0137
1140.00,0.0065
1127.00,0.0062
1114.00,0.0080
1101.00,0.0081
1088.00,0.0099
1075.00,0.0157
1062.00,0.0154
1049.00,0.0104
1036.00,0.0145
1023.00,0.0238
1010.00,0.0129
997.00,0.0102
984.00,0.0118
971.00,0.0116
958.00,0.0111
945.00,0.0111
932.00,0.0082
919.00,0.0096
906.00,0.0221
893.00,0.0083
880.00,0.0062
867.00,0.0057
854.00,0.0061
841.00,0.0116
828.00,0.0056
815.00,0.0057
802.00,0.0064
789.00,0.0115
776.00,0.0289
763.00,0.0753
750.00,0.0964
737.00,0.0401
724.00,0.0117
711.00,0.0263
698.00,0.2600
685.00,0.0895
672.00,0.0407
659.00,0.0249
646.00,0.0163
633.00,0.0179
620.00,0.0213
607.00,0.0167
594.00,0.0186
581.00,0.0236
568.00,0.0397
555.00,0.0565
542.00,0.0884
529.00,0.0619
516.00,0.0310
503.00,0.0213
490.00,0.0169
477.00,0.0144
464.00,0.0132
451.00,0.0130
438.00,0.0119
425.00,0.0101
412.00,0.0105
400.00,0.0100

File: 2025_08_15_Polystyrene_film_scan2.csv
Created as New Dataset,Sample 113 By YargerLab Date Friday, August 15 2025
cm-1,A
4000.00,0.0026
3987.00,0.0025
3974.00,0.0025
3961.00,0.0025
3948.00,0.0025
3935.00,0.0025
3922.00,0.0025
3909.00,0.0025
3896.00,0.0025
3883.00,0.0024
3870.00,0.0024
3857.00,0.0024
3844.00,0.0024
3831.00,0.0024
3818.00,0.0024
3805.00,0.0024
3792.00,0.0024
3779.00,0.0023
3766.00,0.0024
3753.00,0.0023
3740.00,0.0023
3727.00,0.0023
3714.00,0.0023
3701.00,0.0023
3688.00,0.0023
3675.00,0.0023
3662.00,0.0023
3649.00,0.0024
3636.00,0.0023
3623.00,0.0024
3610.00,0.0025
3597.00,0.0026
3584.00,0.0027
3571.00,0.0027
3558.00,0.0028
3545.00,0.0029
3532.00,0.0030
3519.00,0.0031
3506.00,0.0032
3493.00,0.0033
3480.00,0.0033
3467.00,0.0035
3454.00,0.0035
3441.00,0.0034
3428.00,0.0035
3415.00,0.0034
3402.00,0.0035
3389.00,0.0035
3376.00,0.0034
3363.00,0.0034
3350.00,0.0034
3337.00,0.0034
3324.00,0.0033
3311.00,0.0032
3298.00,0.0031
3285.00,0.0032
3272.00,0.0031
3259.00,0.0031
3246.00,0.0031
3233.00,0.0030
3220.00,0.0029
3207.00,0.0031
3194.00,0.0030
3181.00,0.0028
3168.00,0.0029
3155.00,0.0028
3142.00,0.0027
3129.00,0.0027
3116.00,0.0031
3103.00,0.0048
3090.00,0.0064
3077.00,0.0080
3064.00,0.0120
3051.00,0.0084
3038.00,0.0097
3025.00,0.0244
3012.00,0.0075
2999.00,0.0073
2986.00,0.0049
2973.00,0.0054
2960.00,0.0072
2947.00,0.0117
2934.00,0.0228
2921.00,0.0308
2908.00,0.0229
2895.00,0.0141
2882.00,0.0104
2869.00,0.0087
2856.00,0.0128
2843.00,0.0113
2830.00,0.0049
2817.00,0.0040
2804.00,0.0037
2791.00,0.0034
2778.00,0.0033
2765.00,0.0031
2752.00,0.0030
2739.00,0.0030
2726.00,0.0030
2713.00,0.0030
2700.00,0.0029
2687.00,0.0029
2674.00,0.0029
2661.00,0.0030
2648.00,0.0030
2635.00,0.0031
2622.00,0.0029
2609.00,0.0028
2596.00,0.0026
2583.00,0.0026
2570.00,0.0025
2557.00,0.0023
2544.00,0.0024
2531.00,0.0023
2518.00,0.0022
2505.00,0.0023
2492.00,0.0022
2479.00,0.0021
2466.00,0.0020
2453.00,0.0020
2440.00,0.0020
2427.00,0.0019
2414.00,0.0019
2401.00,0.0017
2388.00,0.0018
2375.00,0.0020
2362.00,0.0022
2349.00,0.0023
2336.00,0.0026
2323.00,0.0029
2310.00,0.0026
2297.00,0.0023
2284.00,0.0023
2271.00,0.0019
2258.00,0.0020
2245.00,0.0017
2232.00,0.0016
2219.00,0.0016
2206.00,0.0015
2193.00,0.0018
2180.00,0.0013
2167.00,0.0017
2154.00,0.0000
2141.00,0.0005
2128.00,0.0007
2115.00,0.0012
2102.00,0.0012
2089.00,0.0012
2076.00,0.0013
2063.00,0.0009
2050.00,0.0013
2037.00,0.0007
2024.00,0.0006
2011.00,0.0009
1998.00,0.0010
1985.00,0.0015
1972.00,0.0011
1959.00,0.0025
1946.00,0.0038
1933.00,0.0025
1920.00,0.0017
1907.00,0.0014
1894.00,0.0022
1881.00,0.0034
1868.00,0.0037
1855.00,0.0021
1842.00,0.0016
1829.00,0.0020
1816.00,0.0031
1803.00,0.0045
1790.00,0.0030
1777.00,0.0028
1764.00,0.0033
1751.00,0.0052
1738.00,0.0062
1725.00,0.0050
1712.00,0.0042
1699.00,0.0044
1686.00,0.0062
1673.00,0.0078
1660.00,0.0074
1647.00,0.0054
1634.00,0.0042
1621.00,0.0044
1608.00,0.0110
1595.00,0.0129
1582.00,0.0105
1569.00,0.0037
1556.00,0.0035
1543.00,0.0046
1530.00,0.0035
1517.00,0.0034
1504.00,0.0063
1491.00,0.0524
1478.00,0.0075
1465.00,0.0088
1452.00,0.0627
1439.00,0.0230
1426.00,0.0084
1413.00,0.0061
1400.00,0.0060
1387.00,0.0095
1374.00,0.0142
1361.00,0.0132
1348.00,0.0117
1335.00,0.0107
1322.00,0.0114
1309.00,0.0117
1296.00,0.0107
1283.00,0.0096
1270.00,0.0077
1257.00,0.0069
1244.00,0.0071
1231.00,0.0070
1218.00,0.0071
1205.00,0.0086
1192.00,0.0105
1179.00,0.0130
1166.00,0.0087
1153.00,0.0136
1140.00,0.0066
1127.00,0.0063
1114.00,0.0080
1101.00,0.0082
1088.00,0.0098
1075.00,0.0156
1062.00,0.0153
1049.00,0.0104
1036.00,0.0143
1023.00,0.0233
1010.00,0.0128
997.00,0.0102
984.00,0.0116
971.00,0.0115
958.00,0.0110
945.00,0.0109
932.00,0.0081
919.00,0.0095
906.00,0.0215
893.00,0.0084
880.00,0.0062
867.00,0.0057
854.00,0.0062
841.00,0.0116
828.00,0.0058
815.00,0.0057
802.00,0.0064
789.00,0.0114
776.00,0.0280
763.00,0.0728
750.00,0.0928
737.00,0.0391
724.00,0.0115
711.00,0.0257
698.00,0.2480
685.00,0.0862
672.00,0.0393
659.00,0.0243
646.00,0.0162
633.00,0.0174
620.00,0.0208
607.00,0.0165
594.00,0.0181
581.00,0.0234
568.00,0.0385
555.00,0.0545
542.00,0.0852
529.00,0.0599
516.00,0.0304
503.00,0.0214
490.00,0.0164
477.00,0.0141
464.00,0.0128
451.00,0.0126
438.00,0.0117
425.00,0.0105
412.00,0.0111
400.00,0.0106

File: 2025_08_15_Polystyrene_film_scan3.csv
Created as New Dataset,Sample 114 By YargerLab Date Friday, August 15 2025
cm-1,A
4000.00,0.0017
3987.00,0.0017
3974.00,0.0016
3961.00,0.0016
3948.00,0.0016
3935.00,0.0016
3922.00,0.0016
3909.00,0.0016
3896.00,0.0016
3883.00,0.0016
3870.00,0.0016
3857.00,0.0016
3844.00,0.0016
3831.00,0.0016
3818.00,0.0016
3805.00,0.0016
3792.00,0.0015
3779.00,0.0015
3766.00,0.0016
3753.00,0.0016
3740.00,0.0015
3727.00,0.0015
3714.00,0.0015
3701.00,0.0015
3688.00,0.0015
3675.00,0.0017
3662.00,0.0015
3649.00,0.0018
3636.00,0.0016
3623.00,0.0017
3610.00,0.0017
3597.00,0.0018
3584.00,0.0018
3571.00,0.0019
3558.00,0.0021
3545.00,0.0021
3532.00,0.0023
3519.00,0.0024
3506.00,0.0024
3493.00,0.0026
3480.00,0.0026
3467.00,0.0028
3454.00,0.0028
3441.00,0.0028
3428.00,0.0028
3415.00,0.0028
3402.00,0.0028
3389.00,0.0028
3376.00,0.0027
3363.00,0.0027
3350.00,0.0027
3337.00,0.0027
3324.00,0.0026
3311.00,0.0026
3298.00,0.0025
3285.00,0.0025
3272.00,0.0025
3259.00,0.0024
3246.00,0.0023
3233.00,0.0023
3220.00,0.0023
3207.00,0.0024
3194.00,0.0023
3181.00,0.0021
3168.00,0.0023
3155.00,0.0021
3142.00,0.0020
3129.00,0.0021
3116.00,0.0026
3103.00,0.0046
3090.00,0.0065
3077.00,0.0085
3064.00,0.0132
3051.00,0.0090
3038.00,0.0105
3025.00,0.0279
3012.00,0.0078
2999.00,0.0076
2986.00,0.0047
2973.00,0.0051
2960.00,0.0073
2947.00,0.0127
2934.00,0.0257
2921.00,0.0347
2908.00,0.0255
2895.00,0.0152
2882.00,0.0108
2869.00,0.0090
2856.00,0.0136
2843.00,0.0119
2830.00,0.0046
2817.00,0.0036
2804.00,0.0032
2791.00,0.0029
2778.00,0.0028
2765.00,0.0026
2752.00,0.0025
2739.00,0.0025
2726.00,0.0025
2713.00,0.0025
2700.00,0.0024
2687.00,0.0025
2674.00,0.0024
2661.00,0.0025
2648.00,0.0026
2635.00,0.0027
2622.00,0.0024
2609.00,0.0024
2596.00,0.0023
2583.00,0.0022
2570.00,0.0019
2557.00,0.0019
2544.00,0.0019
2531.00,0.0018
2518.00,0.0018
2505.00,0.0018
2492.00,0.0018
2479.00,0.0017
2466.00,0.0016
2453.00,0.0016
2440.00,0.0015
2427.00,0.0014
2414.00,0.0014
2401.00,0.0013
2388.00,0.0013
2375.00,0.0014
2362.00,0.0015
2349.00,0.0017
2336.00,0.0021
2323.00,0.0023
2310.00,0.0021
2297.00,0.0018
2284.00,0.0019
2271.00,0.0014
2258.00,0.0015
2245.00,0.0014
2232.00,0.0012
2219.00,0.0013
2206.00,0.0012
2193.00,0.0012
2180.00,0.0011
2167.00,0.0013
2154.00,-0.0002
2141.00,0.0001
2128.00,0.0003
2115.00,0.0008
2102.00,0.0008
2089.00,0.0008
2076.00,0.0009
2063.00,0.0005
2050.00,0.0009
2037.00,0.0001
2024.00,0.0000
2011.00,0.0008
1998.00,0.0006
1985.00,0.0013
1972.00,0.0006
1959.00,0.0024
1946.00,0.0041
1933.00,0.0025
1920.00,0.0013
1907.00,0.0011
1894.00,0.0021
1881.00,0.0034
1868.00,0.0038
1855.00,0.0019
1842.00,0.0013
1829.00,0.0018
1816.00,0.0031
1803.00,0.0046
1790.00,0.0028
1777.00,0.0027
1764.00,0.0032
1751.00,0.0053
1738.00,0.0064
1725.00,0.0052
1712.00,0.0041
1699.00,0.0045
1686.00,0.0068
1673.00,0.0083
1660.00,0.0077
1647.00,0.0055
1634.00,0.0041
1621.00,0.0043
1608.00,0.0121
1595.00,0.0143
1582.00,0.0115
1569.00,0.0035
1556.00,0.0034
1543.00,0.0045
1530.00,0.0034
1517.00,0.0031
1504.00,0.0068
1491.00,0.0601
1478.00,0.0081
1465.00,0.0094
1452.00,0.0717
1439.00,0.0258
1426.00,0.0090
1413.00,0.0063
1400.00,0.0062
1387.00,0.0102
1374.00,0.0156
1361.00,0.0144
1348.00,0.0128
1335.00,0.0118
1322.00,0.0126
1309.00,0.0129
1296.00,0.0117
1283.00,0.0105
1270.00,0.0083
1257.00,0.0074
1244.00,0.0076
1231.00,0.0075
1218.00,0.0076
1205.00,0.0093
1192.00,0.0115
1179.00,0.0144
1166.00,0.0093
1153.00,0.0149
1140.00,0.0070
1127.00,0.0066
1114.00,0.0086
1101.00,0.0088
1088.00,0.0107
1075.00,0.0172
1062.00,0.0170
1049.00,0.0114
1036.00,0.0158
1023.00,0.0262
1010.00,0.0142
997.00,0.0113
984.00,0.0129
971.00,0.0128
958.00,0.0121
945.00,0.0120
932.00,0.0089
919.00,0.0105
906.00,0.0242
893.00,0.0092
880.00,0.0067
867.00,0.0062
854.00,0.0067
841.00,0.0128
828.00,0.0062
815.00,0.0062
802.00,0.0070
789.00,0.0126
776.00,0.0314
763.00,0.0821
750.00,0.1045
737.00,0.0437
724.00,0.0126
711.00,0.0285
698.00,0.2825
685.00,0.0952
672.00,0.0435
659.00,0.0268
646.00,0.0176
633.00,0.0192
620.00,0.0228
607.00,0.0179
594.00,0.0201
581.00,0.0256
568.00,0.0424
555.00,0.0604
542.00,0.0945
529.00,0.0661
516.00,0.0333
503.00,0.0227
490.00,0.0178
477.00,0.0157
464.00,0.0140
451.00,0.0137
438.00,0.0122
425.00,0.0120
412.00,0.0105
400.00,0.0116