Folder: Data/FTIR/Olivia (part 13)

File: 2025_08_01_1CBN_3PVP10_drybatchpowder_scan4.csv
Created as New Dataset,Sample 1015 By YargerLab Date Friday, August 01 2025
cm-1,A
4000.00,0.0046
3987.00,0.0046
3974.00,0.0046
3961.00,0.0046
3948.00,0.0045
3935.00,0.0045
3922.00,0.0045
3909.00,0.0045
3896.00,0.0044
3883.00,0.0043
3870.00,0.0043
3857.00,0.0043
3844.00,0.0044
3831.00,0.0043
3818.00,0.0042
3805.00,0.0043
3792.00,0.0044
3779.00,0.0044
3766.00,0.0043
3753.00,0.0043
3740.00,0.0042
3727.00,0.0041
3714.00,0.0041
3701.00,0.0043
3688.00,0.0042
3675.00,0.0041
3662.00,0.0044
3649.00,0.0043
3636.00,0.0048
3623.00,0.0050
3610.00,0.0053
3597.00,0.0057
3584.00,0.0061
3571.00,0.0067
3558.00,0.0075
3545.00,0.0081
3532.00,0.0089
3519.00,0.0096
3506.00,0.0102
3493.00,0.0109
3480.00,0.0118
3467.00,0.0130
3454.00,0.0144
3441.00,0.0160
3428.00,0.0181
3415.00,0.0206
3402.00,0.0219
3389.00,0.0212
3376.00,0.0198
3363.00,0.0184
3350.00,0.0174
3337.00,0.0170
3324.00,0.0170
3311.00,0.0174
3298.00,0.0181
3285.00,0.0189
3272.00,0.0197
3259.00,0.0204
3246.00,0.0210
3233.00,0.0210
3220.00,0.0204
3207.00,0.0191
3194.00,0.0175
3181.00,0.0159
3168.00,0.0143
3155.00,0.0126
3142.00,0.0113
3129.00,0.0103
3116.00,0.0096
3103.00,0.0087
3090.00,0.0085
3077.00,0.0085
3064.00,0.0081
3051.00,0.0082
3038.00,0.0083
3025.00,0.0082
3012.00,0.0078
2999.00,0.0099
2986.00,0.0143
2973.00,0.0199
2960.00,0.0258
2947.00,0.0207
2934.00,0.0313
2921.00,0.0331
2908.00,0.0215
2895.00,0.0166
2882.00,0.0151
2869.00,0.0185
2856.00,0.0251
2843.00,0.0141
2830.00,0.0093
2817.00,0.0078
2804.00,0.0071
2791.00,0.0066
2778.00,0.0062
2765.00,0.0061
2752.00,0.0062
2739.00,0.0063
2726.00,0.0065
2713.00,0.0062
2700.00,0.0061
2687.00,0.0059
2674.00,0.0059
2661.00,0.0063
2648.00,0.0064
2635.00,0.0062
2622.00,0.0059
2609.00,0.0058
2596.00,0.0059
2583.00,0.0059
2570.00,0.0057
2557.00,0.0055
2544.00,0.0054
2531.00,0.0055
2518.00,0.0052
2505.00,0.0049
2492.00,0.0050
2479.00,0.0048
2466.00,0.0047
2453.00,0.0048
2440.00,0.0046
2427.00,0.0046
2414.00,0.0045
2401.00,0.0044
2388.00,0.0043
2375.00,0.0041
2362.00,0.0042
2349.00,0.0043
2336.00,0.0045
2323.00,0.0054
2310.00,0.0048
2297.00,0.0050
2284.00,0.0052
2271.00,0.0047
2258.00,0.0046
2245.00,0.0045
2232.00,0.0046
2219.00,0.0047
2206.00,0.0046
2193.00,0.0047
2180.00,0.0042
2167.00,0.0053
2154.00,0.0021
2141.00,0.0030
2128.00,0.0031
2115.00,0.0041
2102.00,0.0040
2089.00,0.0038
2076.00,0.0040
2063.00,0.0038
2050.00,0.0046
2037.00,0.0041
2024.00,0.0032
2011.00,0.0035
1998.00,0.0032
1985.00,0.0046
1972.00,0.0027
1959.00,0.0027
1946.00,0.0029
1933.00,0.0032
1920.00,0.0034
1907.00,0.0041
1894.00,0.0038
1881.00,0.0035
1868.00,0.0034
1855.00,0.0036
1842.00,0.0037
1829.00,0.0034
1816.00,0.0033
1803.00,0.0036
1790.00,0.0037
1777.00,0.0038
1764.00,0.0038
1751.00,0.0037
1738.00,0.0037
1725.00,0.0046
1712.00,0.0058
1699.00,0.0086
1686.00,0.0176
1673.00,0.0289
1660.00,0.0373
1647.00,0.0364
1634.00,0.0297
1621.00,0.0475
1608.00,0.0320
1595.00,0.0175
1582.00,0.0326
1569.00,0.0187
1556.00,0.0099
1543.00,0.0083
1530.00,0.0077
1517.00,0.0094
1504.00,0.0132
1491.00,0.0189
1478.00,0.0111
1465.00,0.0273
1452.00,0.0239
1439.00,0.0354
1426.00,0.0409
1413.00,0.0288
1400.00,0.0389
1387.00,0.0259
1374.00,0.0216
1361.00,0.0299
1348.00,0.0217
1335.00,0.0167
1322.00,0.0192
1309.00,0.0187
1296.00,0.0318
1283.00,0.0397
1270.00,0.0285
1257.00,0.0187
1244.00,0.0238
1231.00,0.0303
1218.00,0.0242
1205.00,0.0196
1192.00,0.0302
1179.00,0.0153
1166.00,0.0151
1153.00,0.0314
1140.00,0.0136
1127.00,0.0348
1114.00,0.0164
1101.00,0.0221
1088.00,0.0119
1075.00,0.0120
1062.00,0.0210
1049.00,0.0465
1036.00,0.0221
1023.00,0.0314
1010.00,0.0147
997.00,0.0173
984.00,0.0114
971.00,0.0105
958.00,0.0098
945.00,0.0090
932.00,0.0124
919.00,0.0122
906.00,0.0094
893.00,0.0124
880.00,0.0109
867.00,0.0250
854.00,0.0194
841.00,0.0184
828.00,0.0189
815.00,0.0307
802.00,0.0107
789.00,0.0102
776.00,0.0126
763.00,0.0124
750.00,0.0140
737.00,0.0219
724.00,0.0184
711.00,0.0180
698.00,0.0198
685.00,0.0210
672.00,0.0249
659.00,0.0267
646.00,0.0255
633.00,0.0240
620.00,0.0260
607.00,0.0262
594.00,0.0298
581.00,0.0312
568.00,0.0298
555.00,0.0303
542.00,0.0307
529.00,0.0307
516.00,0.0257
503.00,0.0258
490.00,0.0255
477.00,0.0238
464.00,0.0239
451.00,0.0232
438.00,0.0228
425.00,0.0227
412.00,0.0224
400.00,0.0219

File: 2025_08_01_1CBN_3PVP10_drybatchpowder_scan5.csv
Created as New Dataset,Sample 1016 By YargerLab Date Friday, August 01 2025
cm-1,A
4000.00,0.0060
3987.00,0.0060
3974.00,0.0060
3961.00,0.0060
3948.00,0.0060
3935.00,0.0061
3922.00,0.0061
3909.00,0.0060
3896.00,0.0061
3883.00,0.0061
3870.00,0.0061
3857.00,0.0061
3844.00,0.0061
3831.00,0.0060
3818.00,0.0061
3805.00,0.0060
3792.00,0.0059
3779.00,0.0059
3766.00,0.0060
3753.00,0.0062
3740.00,0.0062
3727.00,0.0059
3714.00,0.0059
3701.00,0.0058
3688.00,0.0060
3675.00,0.0061
3662.00,0.0060
3649.00,0.0066
3636.00,0.0066
3623.00,0.0072
3610.00,0.0078
3597.00,0.0084
3584.00,0.0091
3571.00,0.0099
3558.00,0.0108
3545.00,0.0120
3532.00,0.0129
3519.00,0.0138
3506.00,0.0146
3493.00,0.0155
3480.00,0.0166
3467.00,0.0181
3454.00,0.0197
3441.00,0.0216
3428.00,0.0240
3415.00,0.0269
3402.00,0.0284
3389.00,0.0275
3376.00,0.0257
3363.00,0.0239
3350.00,0.0227
3337.00,0.0221
3324.00,0.0221
3311.00,0.0226
3298.00,0.0233
3285.00,0.0243
3272.00,0.0250
3259.00,0.0258
3246.00,0.0263
3233.00,0.0262
3220.00,0.0254
3207.00,0.0238
3194.00,0.0218
3181.00,0.0199
3168.00,0.0179
3155.00,0.0159
3142.00,0.0144
3129.00,0.0132
3116.00,0.0123
3103.00,0.0113
3090.00,0.0111
3077.00,0.0110
3064.00,0.0106
3051.00,0.0106
3038.00,0.0108
3025.00,0.0106
3012.00,0.0103
2999.00,0.0130
2986.00,0.0186
2973.00,0.0257
2960.00,0.0331
2947.00,0.0270
2934.00,0.0393
2921.00,0.0425
2908.00,0.0281
2895.00,0.0222
2882.00,0.0203
2869.00,0.0242
2856.00,0.0323
2843.00,0.0186
2830.00,0.0126
2817.00,0.0105
2804.00,0.0097
2791.00,0.0090
2778.00,0.0086
2765.00,0.0084
2752.00,0.0084
2739.00,0.0086
2726.00,0.0088
2713.00,0.0085
2700.00,0.0083
2687.00,0.0081
2674.00,0.0080
2661.00,0.0084
2648.00,0.0085
2635.00,0.0083
2622.00,0.0079
2609.00,0.0079
2596.00,0.0080
2583.00,0.0080
2570.00,0.0078
2557.00,0.0076
2544.00,0.0075
2531.00,0.0075
2518.00,0.0072
2505.00,0.0070
2492.00,0.0070
2479.00,0.0068
2466.00,0.0067
2453.00,0.0069
2440.00,0.0067
2427.00,0.0066
2414.00,0.0065
2401.00,0.0065
2388.00,0.0064
2375.00,0.0063
2362.00,0.0063
2349.00,0.0061
2336.00,0.0064
2323.00,0.0070
2310.00,0.0064
2297.00,0.0068
2284.00,0.0071
2271.00,0.0068
2258.00,0.0065
2245.00,0.0065
2232.00,0.0066
2219.00,0.0067
2206.00,0.0064
2193.00,0.0066
2180.00,0.0063
2167.00,0.0073
2154.00,0.0044
2141.00,0.0051
2128.00,0.0054
2115.00,0.0061
2102.00,0.0060
2089.00,0.0058
2076.00,0.0062
2063.00,0.0058
2050.00,0.0061
2037.00,0.0056
2024.00,0.0051
2011.00,0.0053
1998.00,0.0050
1985.00,0.0061
1972.00,0.0049
1959.00,0.0047
1946.00,0.0049
1933.00,0.0051
1920.00,0.0054
1907.00,0.0061
1894.00,0.0059
1881.00,0.0055
1868.00,0.0054
1855.00,0.0056
1842.00,0.0056
1829.00,0.0053
1816.00,0.0053
1803.00,0.0056
1790.00,0.0056
1777.00,0.0059
1764.00,0.0058
1751.00,0.0057
1738.00,0.0059
1725.00,0.0071
1712.00,0.0086
1699.00,0.0136
1686.00,0.0290
1673.00,0.0490
1660.00,0.0642
1647.00,0.0644
1634.00,0.0515
1621.00,0.0688
1608.00,0.0465
1595.00,0.0260
1582.00,0.0437
1569.00,0.0262
1556.00,0.0143
1543.00,0.0126
1530.00,0.0116
1517.00,0.0135
1504.00,0.0189
1491.00,0.0281
1478.00,0.0166
1465.00,0.0408
1452.00,0.0353
1439.00,0.0531
1426.00,0.0622
1413.00,0.0431
1400.00,0.0520
1387.00,0.0358
1374.00,0.0318
1361.00,0.0411
1348.00,0.0305
1335.00,0.0243
1322.00,0.0292
1309.00,0.0282
1296.00,0.0486
1283.00,0.0640
1270.00,0.0493
1257.00,0.0317
1244.00,0.0359
1231.00,0.0455
1218.00,0.0377
1205.00,0.0306
1192.00,0.0437
1179.00,0.0245
1166.00,0.0247
1153.00,0.0440
1140.00,0.0213
1127.00,0.0483
1114.00,0.0248
1101.00,0.0322
1088.00,0.0191
1075.00,0.0196
1062.00,0.0300
1049.00,0.0632
1036.00,0.0321
1023.00,0.0449
1010.00,0.0230
997.00,0.0266
984.00,0.0183
971.00,0.0170
958.00,0.0160
945.00,0.0149
932.00,0.0200
919.00,0.0192
906.00,0.0157
893.00,0.0197
880.00,0.0173
867.00,0.0358
854.00,0.0293
841.00,0.0289
828.00,0.0287
815.00,0.0444
802.00,0.0177
789.00,0.0173
776.00,0.0208
763.00,0.0211
750.00,0.0243
737.00,0.0353
724.00,0.0310
711.00,0.0302
698.00,0.0327
685.00,0.0351
672.00,0.0413
659.00,0.0452
646.00,0.0450
633.00,0.0423
620.00,0.0448
607.00,0.0449
594.00,0.0506
581.00,0.0537
568.00,0.0531
555.00,0.0534
542.00,0.0534
529.00,0.0540
516.00,0.0472
503.00,0.0472
490.00,0.0478
477.00,0.0459
464.00,0.0455
451.00,0.0441
438.00,0.0432
425.00,0.0404
412.00,0.0417
400.00,0.0397

File: 2025_08_01_1CBN_3PVP10kDa_MC_glass_scan1.csv
Created as New Dataset,Sample 1017 By YargerLab Date Friday, August 01 2025
cm-1,A
4000.00,0.0044
3987.00,0.0045
3974.00,0.0044
3961.00,0.0044
3948.00,0.0044
3935.00,0.0044
3922.00,0.0045
3909.00,0.0044
3896.00,0.0046
3883.00,0.0046
3870.00,0.0046
3857.00,0.0046
3844.00,0.0046
3831.00,0.0045
3818.00,0.0047
3805.00,0.0046
3792.00,0.0044
3779.00,0.0045
3766.00,0.0046
3753.00,0.0047
3740.00,0.0047
3727.00,0.0045
3714.00,0.0045
3701.00,0.0043
3688.00,0.0046
3675.00,0.0050
3662.00,0.0047
3649.00,0.0055
3636.00,0.0055
3623.00,0.0060
3610.00,0.0067
3597.00,0.0072
3584.00,0.0082
3571.00,0.0091
3558.00,0.0100
3545.00,0.0109
3532.00,0.0115
3519.00,0.0121
3506.00,0.0126
3493.00,0.0131
3480.00,0.0137
3467.00,0.0141
3454.00,0.0144
3441.00,0.0145
3428.00,0.0146
3415.00,0.0146
3402.00,0.0145
3389.00,0.0144
3376.00,0.0143
3363.00,0.0141
3350.00,0.0139
3337.00,0.0138
3324.00,0.0137
3311.00,0.0135
3298.00,0.0135
3285.00,0.0135
3272.00,0.0131
3259.00,0.0131
3246.00,0.0129
3233.00,0.0127
3220.00,0.0125
3207.00,0.0123
3194.00,0.0121
3181.00,0.0119
3168.00,0.0118
3155.00,0.0115
3142.00,0.0113
3129.00,0.0111
3116.00,0.0109
3103.00,0.0107
3090.00,0.0106
3077.00,0.0106
3064.00,0.0104
3051.00,0.0101
3038.00,0.0100
3025.00,0.0099
3012.00,0.0101
2999.00,0.0122
2986.00,0.0171
2973.00,0.0208
2960.00,0.0240
2947.00,0.0248
2934.00,0.0258
2921.00,0.0267
2908.00,0.0223
2895.00,0.0205
2882.00,0.0203
2869.00,0.0210
2856.00,0.0203
2843.00,0.0154
2830.00,0.0123
2817.00,0.0105
2804.00,0.0095
2791.00,0.0089
2778.00,0.0084
2765.00,0.0082
2752.00,0.0081
2739.00,0.0082
2726.00,0.0081
2713.00,0.0079
2700.00,0.0077
2687.00,0.0075
2674.00,0.0074
2661.00,0.0076
2648.00,0.0076
2635.00,0.0074
2622.00,0.0073
2609.00,0.0072
2596.00,0.0070
2583.00,0.0070
2570.00,0.0068
2557.00,0.0066
2544.00,0.0065
2531.00,0.0062
2518.00,0.0060
2505.00,0.0058
2492.00,0.0057
2479.00,0.0057
2466.00,0.0057
2453.00,0.0057
2440.00,0.0057
2427.00,0.0055
2414.00,0.0055
2401.00,0.0053
2388.00,0.0052
2375.00,0.0046
2362.00,0.0045
2349.00,0.0045
2336.00,0.0050
2323.00,0.0061
2310.00,0.0053
2297.00,0.0057
2284.00,0.0063
2271.00,0.0059
2258.00,0.0058
2245.00,0.0055
2232.00,0.0055
2219.00,0.0056
2206.00,0.0055
2193.00,0.0059
2180.00,0.0053
2167.00,0.0064
2154.00,0.0035
2141.00,0.0038
2128.00,0.0042
2115.00,0.0053
2102.00,0.0051
2089.00,0.0050
2076.00,0.0053
2063.00,0.0049
2050.00,0.0057
2037.00,0.0054
2024.00,0.0045
2011.00,0.0046
1998.00,0.0043
1985.00,0.0050
1972.00,0.0036
1959.00,0.0034
1946.00,0.0039
1933.00,0.0040
1920.00,0.0041
1907.00,0.0042
1894.00,0.0043
1881.00,0.0042
1868.00,0.0041
1855.00,0.0043
1842.00,0.0042
1829.00,0.0041
1816.00,0.0039
1803.00,0.0043
1790.00,0.0042
1777.00,0.0043
1764.00,0.0045
1751.00,0.0047
1738.00,0.0051
1725.00,0.0062
1712.00,0.0089
1699.00,0.0247
1686.00,0.0675
1673.00,0.1000
1660.00,0.1140
1647.00,0.1032
1634.00,0.0609
1621.00,0.0489
1608.00,0.0392
1595.00,0.0234
1582.00,0.0299
1569.00,0.0187
1556.00,0.0140
1543.00,0.0126
1530.00,0.0124
1517.00,0.0141
1504.00,0.0183
1491.00,0.0294
1478.00,0.0174
1465.00,0.0419
1452.00,0.0388
1439.00,0.0574
1426.00,0.0731
1413.00,0.0513
1400.00,0.0397
1387.00,0.0270
1374.00,0.0334
1361.00,0.0312
1348.00,0.0215
1335.00,0.0223
1322.00,0.0307
1309.00,0.0302
1296.00,0.0511
1283.00,0.0858
1270.00,0.0761
1257.00,0.0437
1244.00,0.0368
1231.00,0.0428
1218.00,0.0425
1205.00,0.0314
1192.00,0.0347
1179.00,0.0261
1166.00,0.0288
1153.00,0.0314
1140.00,0.0208
1127.00,0.0285
1114.00,0.0199
1101.00,0.0237
1088.00,0.0194
1075.00,0.0217
1062.00,0.0384
1049.00,0.0291
1036.00,0.0276
1023.00,0.0253
1010.00,0.0214
997.00,0.0220
984.00,0.0170
971.00,0.0159
958.00,0.0147
945.00,0.0144
932.00,0.0202
919.00,0.0179
906.00,0.0175
893.00,0.0203
880.00,0.0195
867.00,0.0247
854.00,0.0282
841.00,0.0321
828.00,0.0308
815.00,0.0296
802.00,0.0199
789.00,0.0196
776.00,0.0211
763.00,0.0225
750.00,0.0278
737.00,0.0362
724.00,0.0288
711.00,0.0259
698.00,0.0265
685.00,0.0309
672.00,0.0340
659.00,0.0437
646.00,0.0507
633.00,0.0426
620.00,0.0398
607.00,0.0401
594.00,0.0424
581.00,0.0540
568.00,0.0549
555.00,0.0489
542.00,0.0443
529.00,0.0462
516.00,0.0429
503.00,0.0434
490.00,0.0435
477.00,0.0440
464.00,0.0434
451.00,0.0418
438.00,0.0391
425.00,0.0389
412.00,0.0413
400.00,0.0398

File: 2025_08_01_1CBN_3PVP10kDa_MC_glass_scan2.csv
Created as New Dataset,Sample 1018 By YargerLab Date Friday, August 01 2025
cm-1,A
4000.00,0.0033
3987.00,0.0033
3974.00,0.0032
3961.00,0.0033
3948.00,0.0032
3935.00,0.0033
3922.00,0.0032
3909.00,0.0032
3896.00,0.0031
3883.00,0.0031
3870.00,0.0031
3857.00,0.0031
3844.00,0.0032
3831.00,0.0031
3818.00,0.0029
3805.00,0.0031
3792.00,0.0032
3779.00,0.0032
3766.00,0.0031
3753.00,0.0031
3740.00,0.0029
3727.00,0.0030
3714.00,0.0030
3701.00,0.0030
3688.00,0.0030
3675.00,0.0031
3662.00,0.0033
3649.00,0.0034
3636.00,0.0039
3623.00,0.0042
3610.00,0.0046
3597.00,0.0051
3584.00,0.0058
3571.00,0.0065
3558.00,0.0073
3545.00,0.0079
3532.00,0.0084
3519.00,0.0089
3506.00,0.0093
3493.00,0.0097
3480.00,0.0100
3467.00,0.0103
3454.00,0.0105
3441.00,0.0106
3428.00,0.0107
3415.00,0.0106
3402.00,0.0105
3389.00,0.0104
3376.00,0.0103
3363.00,0.0100
3350.00,0.0098
3337.00,0.0097
3324.00,0.0096
3311.00,0.0094
3298.00,0.0093
3285.00,0.0093
3272.00,0.0092
3259.00,0.0090
3246.00,0.0089
3233.00,0.0087
3220.00,0.0085
3207.00,0.0084
3194.00,0.0081
3181.00,0.0080
3168.00,0.0078
3155.00,0.0077
3142.00,0.0075
3129.00,0.0074
3116.00,0.0072
3103.00,0.0071
3090.00,0.0070
3077.00,0.0070
3064.00,0.0068
3051.00,0.0067
3038.00,0.0067
3025.00,0.0066
3012.00,0.0068
2999.00,0.0081
2986.00,0.0111
2973.00,0.0134
2960.00,0.0154
2947.00,0.0159
2934.00,0.0161
2921.00,0.0165
2908.00,0.0142
2895.00,0.0133
2882.00,0.0132
2869.00,0.0136
2856.00,0.0128
2843.00,0.0099
2830.00,0.0081
2817.00,0.0069
2804.00,0.0063
2791.00,0.0060
2778.00,0.0057
2765.00,0.0055
2752.00,0.0055
2739.00,0.0056
2726.00,0.0055
2713.00,0.0054
2700.00,0.0053
2687.00,0.0052
2674.00,0.0051
2661.00,0.0053
2648.00,0.0054
2635.00,0.0052
2622.00,0.0051
2609.00,0.0049
2596.00,0.0048
2583.00,0.0047
2570.00,0.0045
2557.00,0.0045
2544.00,0.0044
2531.00,0.0042
2518.00,0.0040
2505.00,0.0039
2492.00,0.0039
2479.00,0.0039
2466.00,0.0039
2453.00,0.0040
2440.00,0.0039
2427.00,0.0037
2414.00,0.0037
2401.00,0.0035
2388.00,0.0034
2375.00,0.0033
2362.00,0.0034
2349.00,0.0036
2336.00,0.0037
2323.00,0.0049
2310.00,0.0038
2297.00,0.0042
2284.00,0.0046
2271.00,0.0042
2258.00,0.0040
2245.00,0.0039
2232.00,0.0039
2219.00,0.0040
2206.00,0.0039
2193.00,0.0042
2180.00,0.0039
2167.00,0.0047
2154.00,0.0019
2141.00,0.0024
2128.00,0.0024
2115.00,0.0037
2102.00,0.0036
2089.00,0.0034
2076.00,0.0036
2063.00,0.0035
2050.00,0.0043
2037.00,0.0039
2024.00,0.0030
2011.00,0.0032
1998.00,0.0029
1985.00,0.0038
1972.00,0.0023
1959.00,0.0019
1946.00,0.0025
1933.00,0.0026
1920.00,0.0026
1907.00,0.0027
1894.00,0.0028
1881.00,0.0028
1868.00,0.0028
1855.00,0.0029
1842.00,0.0029
1829.00,0.0028
1816.00,0.0025
1803.00,0.0029
1790.00,0.0029
1777.00,0.0029
1764.00,0.0031
1751.00,0.0031
1738.00,0.0031
1725.00,0.0040
1712.00,0.0059
1699.00,0.0155
1686.00,0.0409
1673.00,0.0615
1660.00,0.0709
1647.00,0.0657
1634.00,0.0416
1621.00,0.0328
1608.00,0.0259
1595.00,0.0158
1582.00,0.0193
1569.00,0.0125
1556.00,0.0097
1543.00,0.0085
1530.00,0.0085
1517.00,0.0096
1504.00,0.0125
1491.00,0.0196
1478.00,0.0118
1465.00,0.0273
1452.00,0.0254
1439.00,0.0371
1426.00,0.0465
1413.00,0.0331
1400.00,0.0251
1387.00,0.0178
1374.00,0.0219
1361.00,0.0204
1348.00,0.0143
1335.00,0.0148
1322.00,0.0204
1309.00,0.0202
1296.00,0.0336
1283.00,0.0546
1270.00,0.0491
1257.00,0.0293
1244.00,0.0247
1231.00,0.0285
1218.00,0.0285
1205.00,0.0217
1192.00,0.0234
1179.00,0.0181
1166.00,0.0199
1153.00,0.0213
1140.00,0.0147
1127.00,0.0196
1114.00,0.0142
1101.00,0.0166
1088.00,0.0139
1075.00,0.0153
1062.00,0.0254
1049.00,0.0197
1036.00,0.0178
1023.00,0.0173
1010.00,0.0150
997.00,0.0154
984.00,0.0123
971.00,0.0115
958.00,0.0106
945.00,0.0104
932.00,0.0142
919.00,0.0127
906.00,0.0123
893.00,0.0141
880.00,0.0134
867.00,0.0166
854.00,0.0188
841.00,0.0211
828.00,0.0201
815.00,0.0192
802.00,0.0134
789.00,0.0133
776.00,0.0143
763.00,0.0152
750.00,0.0186
737.00,0.0237
724.00,0.0193
711.00,0.0176
698.00,0.0179
685.00,0.0207
672.00,0.0228
659.00,0.0287
646.00,0.0328
633.00,0.0281
620.00,0.0262
607.00,0.0265
594.00,0.0278
581.00,0.0345
568.00,0.0352
555.00,0.0319
542.00,0.0295
529.00,0.0307
516.00,0.0292
503.00,0.0298
490.00,0.0298
477.00,0.0305
464.00,0.0302
451.00,0.0287
438.00,0.0262
425.00,0.0253
412.00,0.0261
400.00,0.0253

File: 2025_08_01_1CBN_3PVP10kDa_MC_glass_scan3.csv
Created as New Dataset,Sample 1019 By YargerLab Date Friday, August 01 2025
cm-1,A
4000.00,0.0022
3987.00,0.0023
3974.00,0.0022
3961.00,0.0023
3948.00,0.0023
3935.00,0.0023
3922.00,0.0023
3909.00,0.0023
3896.00,0.0024
3883.00,0.0025
3870.00,0.0026
3857.00,0.0025
3844.00,0.0024
3831.00,0.0024
3818.00,0.0027
3805.00,0.0025
3792.00,0.0023
3779.00,0.0024
3766.00,0.0023
3753.00,0.0028
3740.00,0.0027
3727.00,0.0024
3714.00,0.0024
3701.00,0.0022
3688.00,0.0024
3675.00,0.0028
3662.00,0.0024
3649.00,0.0031
3636.00,0.0028
3623.00,0.0033
3610.00,0.0038
3597.00,0.0039
3584.00,0.0044
3571.00,0.0050
3558.00,0.0054
3545.00,0.0060
3532.00,0.0063
3519.00,0.0066
3506.00,0.0069
3493.00,0.0072
3480.00,0.0074
3467.00,0.0076
3454.00,0.0078
3441.00,0.0078
3428.00,0.0079
3415.00,0.0078
3402.00,0.0077
3389.00,0.0076
3376.00,0.0075
3363.00,0.0073
3350.00,0.0071
3337.00,0.0070
3324.00,0.0069
3311.00,0.0068
3298.00,0.0068
3285.00,0.0067
3272.00,0.0067
3259.00,0.0065
3246.00,0.0065
3233.00,0.0063
3220.00,0.0061
3207.00,0.0060
3194.00,0.0058
3181.00,0.0057
3168.00,0.0056
3155.00,0.0054
3142.00,0.0053
3129.00,0.0053
3116.00,0.0051
3103.00,0.0050
3090.00,0.0050
3077.00,0.0050
3064.00,0.0048
3051.00,0.0047
3038.00,0.0047
3025.00,0.0046
3012.00,0.0047
2999.00,0.0056
2986.00,0.0077
2973.00,0.0092
2960.00,0.0106
2947.00,0.0110
2934.00,0.0110
2921.00,0.0112
2908.00,0.0098
2895.00,0.0091
2882.00,0.0090
2869.00,0.0093
2856.00,0.0087
2843.00,0.0067
2830.00,0.0055
2817.00,0.0047
2804.00,0.0043
2791.00,0.0041
2778.00,0.0039
2765.00,0.0038
2752.00,0.0038
2739.00,0.0038
2726.00,0.0038
2713.00,0.0037
2700.00,0.0037
2687.00,0.0036
2674.00,0.0035
2661.00,0.0037
2648.00,0.0038
2635.00,0.0037
2622.00,0.0036
2609.00,0.0035
2596.00,0.0033
2583.00,0.0033
2570.00,0.0032
2557.00,0.0032
2544.00,0.0031
2531.00,0.0029
2518.00,0.0028
2505.00,0.0027
2492.00,0.0026
2479.00,0.0027
2466.00,0.0027
2453.00,0.0028
2440.00,0.0026
2427.00,0.0025
2414.00,0.0025
2401.00,0.0024
2388.00,0.0023
2375.00,0.0015
2362.00,0.0016
2349.00,0.0016
2336.00,0.0020
2323.00,0.0029
2310.00,0.0022
2297.00,0.0028
2284.00,0.0034
2271.00,0.0031
2258.00,0.0030
2245.00,0.0027
2232.00,0.0030
2219.00,0.0028
2206.00,0.0028
2193.00,0.0030
2180.00,0.0028
2167.00,0.0037
2154.00,0.0011
2141.00,0.0014
2128.00,0.0014
2115.00,0.0025
2102.00,0.0026
2089.00,0.0025
2076.00,0.0026
2063.00,0.0022
2050.00,0.0034
2037.00,0.0027
2024.00,0.0020
2011.00,0.0023
1998.00,0.0021
1985.00,0.0027
1972.00,0.0010
1959.00,0.0011
1946.00,0.0016
1933.00,0.0016
1920.00,0.0018
1907.00,0.0019
1894.00,0.0019
1881.00,0.0019
1868.00,0.0019
1855.00,0.0019
1842.00,0.0019
1829.00,0.0021
1816.00,0.0017
1803.00,0.0020
1790.00,0.0021
1777.00,0.0021
1764.00,0.0022
1751.00,0.0022
1738.00,0.0023
1725.00,0.0027
1712.00,0.0041
1699.00,0.0109
1686.00,0.0304
1673.00,0.0435
1660.00,0.0499
1647.00,0.0473
1634.00,0.0286
1621.00,0.0226
1608.00,0.0179
1595.00,0.0108
1582.00,0.0133
1569.00,0.0086
1556.00,0.0067
1543.00,0.0063
1530.00,0.0059
1517.00,0.0068
1504.00,0.0086
1491.00,0.0140
1478.00,0.0083
1465.00,0.0191
1452.00,0.0176
1439.00,0.0264
1426.00,0.0325
1413.00,0.0229
1400.00,0.0173
1387.00,0.0119
1374.00,0.0150
1361.00,0.0139
1348.00,0.0097
1335.00,0.0101
1322.00,0.0140
1309.00,0.0141
1296.00,0.0232
1283.00,0.0380
1270.00,0.0339
1257.00,0.0198
1244.00,0.0166
1231.00,0.0194
1218.00,0.0194
1205.00,0.0146
1192.00,0.0158
1179.00,0.0121
1166.00,0.0133
1153.00,0.0143
1140.00,0.0096
1127.00,0.0131
1114.00,0.0093
1101.00,0.0110
1088.00,0.0092
1075.00,0.0102
1062.00,0.0171
1049.00,0.0131
1036.00,0.0115
1023.00,0.0113
1010.00,0.0099
997.00,0.0102
984.00,0.0081
971.00,0.0075
958.00,0.0068
945.00,0.0069
932.00,0.0094
919.00,0.0084
906.00,0.0083
893.00,0.0094
880.00,0.0089
867.00,0.0110
854.00,0.0126
841.00,0.0141
828.00,0.0135
815.00,0.0127
802.00,0.0089
789.00,0.0088
776.00,0.0095
763.00,0.0100
750.00,0.0124
737.00,0.0159
724.00,0.0128
711.00,0.0117
698.00,0.0120
685.00,0.0138
672.00,0.0151
659.00,0.0190
646.00,0.0217
633.00,0.0184
620.00,0.0174
607.00,0.0175
594.00,0.0185
581.00,0.0229
568.00,0.0231
555.00,0.0208
542.00,0.0194
529.00,0.0202
516.00,0.0192
503.00,0.0196
490.00,0.0197
477.00,0.0205
464.00,0.0193
451.00,0.0185
438.00,0.0169
425.00,0.0168
412.00,0.0164
400.00,0.0180

File: 2025_08_01_1CBN_3PVP29_mortar_dry_scan1.csv
Created as New Dataset,Sample 1020 By YargerLab Date Friday, August 01 2025
cm-1,A
4000.00,0.0067
3987.00,0.0067
3974.00,0.0068
3961.00,0.0067
3948.00,0.0066
3935.00,0.0066
3922.00,0.0067
3909.00,0.0067
3896.00,0.0066
3883.00,0.0065
3870.00,0.0065
3857.00,0.0066
3844.00,0.0066
3831.00,0.0066
3818.00,0.0066
3805.00,0.0066
3792.00,0.0066
3779.00,0.0066
3766.00,0.0066
3753.00,0.0066
3740.00,0.0065
3727.00,0.0064
3714.00,0.0064
3701.00,0.0064
3688.00,0.0064
3675.00,0.0067
3662.00,0.0070
3649.00,0.0073
3636.00,0.0079
3623.00,0.0085
3610.00,0.0093
3597.00,0.0101
3584.00,0.0111
3571.00,0.0123
3558.00,0.0137
3545.00,0.0151
3532.00,0.0165
3519.00,0.0178
3506.00,0.0190
3493.00,0.0202
3480.00,0.0216
3467.00,0.0232
3454.00,0.0251
3441.00,0.0272
3428.00,0.0300
3415.00,0.0331
3402.00,0.0352
3389.00,0.0349
3376.00,0.0330
3363.00,0.0310
3350.00,0.0293
3337.00,0.0283
3324.00,0.0279
3311.00,0.0280
3298.00,0.0287
3285.00,0.0295
3272.00,0.0301
3259.00,0.0309
3246.00,0.0313
3233.00,0.0311
3220.00,0.0304
3207.00,0.0287
3194.00,0.0266
3181.00,0.0244
3168.00,0.0222
3155.00,0.0199
3142.00,0.0180
3129.00,0.0164
3116.00,0.0153
3103.00,0.0140
3090.00,0.0134
3077.00,0.0131
3064.00,0.0126
3051.00,0.0125
3038.00,0.0126
3025.00,0.0123
3012.00,0.0119
2999.00,0.0148
2986.00,0.0200
2973.00,0.0276
2960.00,0.0354
2947.00,0.0288
2934.00,0.0412
2921.00,0.0469
2908.00,0.0325
2895.00,0.0259
2882.00,0.0233
2869.00,0.0273
2856.00,0.0367
2843.00,0.0229
2830.00,0.0156
2817.00,0.0131
2804.00,0.0120
2791.00,0.0112
2778.00,0.0107
2765.00,0.0104
2752.00,0.0103
2739.00,0.0106
2726.00,0.0108
2713.00,0.0104
2700.00,0.0102
2687.00,0.0099
2674.00,0.0098
2661.00,0.0103
2648.00,0.0104
2635.00,0.0102
2622.00,0.0097
2609.00,0.0097
2596.00,0.0098
2583.00,0.0099
2570.00,0.0097
2557.00,0.0094
2544.00,0.0093
2531.00,0.0092
2518.00,0.0090
2505.00,0.0088
2492.00,0.0086
2479.00,0.0085
2466.00,0.0084
2453.00,0.0086
2440.00,0.0084
2427.00,0.0083
2414.00,0.0082
2401.00,0.0082
2388.00,0.0081
2375.00,0.0080
2362.00,0.0081
2349.00,0.0085
2336.00,0.0084
2323.00,0.0094
2310.00,0.0084
2297.00,0.0088
2284.00,0.0093
2271.00,0.0087
2258.00,0.0082
2245.00,0.0082
2232.00,0.0083
2219.00,0.0084
2206.00,0.0084
2193.00,0.0084
2180.00,0.0084
2167.00,0.0091
2154.00,0.0061
2141.00,0.0067
2128.00,0.0068
2115.00,0.0080
2102.00,0.0076
2089.00,0.0076
2076.00,0.0078
2063.00,0.0074
2050.00,0.0080
2037.00,0.0074
2024.00,0.0066
2011.00,0.0065
1998.00,0.0064
1985.00,0.0074
1972.00,0.0057
1959.00,0.0056
1946.00,0.0064
1933.00,0.0064
1920.00,0.0070
1907.00,0.0080
1894.00,0.0074
1881.00,0.0069
1868.00,0.0070
1855.00,0.0071
1842.00,0.0075
1829.00,0.0070
1816.00,0.0068
1803.00,0.0072
1790.00,0.0074
1777.00,0.0075
1764.00,0.0078
1751.00,0.0077
1738.00,0.0080
1725.00,0.0094
1712.00,0.0116
1699.00,0.0155
1686.00,0.0253
1673.00,0.0464
1660.00,0.0694
1647.00,0.0838
1634.00,0.0796
1621.00,0.0966
1608.00,0.0672
1595.00,0.0382
1582.00,0.0571
1569.00,0.0365
1556.00,0.0216
1543.00,0.0182
1530.00,0.0167
1517.00,0.0192
1504.00,0.0258
1491.00,0.0391
1478.00,0.0224
1465.00,0.0562
1452.00,0.0477
1439.00,0.0715
1426.00,0.0818
1413.00,0.0554
1400.00,0.0655
1387.00,0.0481
1374.00,0.0439
1361.00,0.0534
1348.00,0.0424
1335.00,0.0343
1322.00,0.0416
1309.00,0.0387
1296.00,0.0689
1283.00,0.0869
1270.00,0.0645
1257.00,0.0422
1244.00,0.0474
1231.00,0.0630
1218.00,0.0508
1205.00,0.0415
1192.00,0.0602
1179.00,0.0341
1166.00,0.0330
1153.00,0.0584
1140.00,0.0290
1127.00,0.0686
1114.00,0.0377
1101.00,0.0470
1088.00,0.0283
1075.00,0.0284
1062.00,0.0410
1049.00,0.0877
1036.00,0.0488
1023.00,0.0661
1010.00,0.0354
997.00,0.0420
984.00,0.0288
971.00,0.0263
958.00,0.0242
945.00,0.0227
932.00,0.0298
919.00,0.0295
906.00,0.0228
893.00,0.0292
880.00,0.0260
867.00,0.0569
854.00,0.0459
841.00,0.0449
828.00,0.0452
815.00,0.0733
802.00,0.0312
789.00,0.0300
776.00,0.0353
763.00,0.0361
750.00,0.0402
737.00,0.0577
724.00,0.0539
711.00,0.0536
698.00,0.0564
685.00,0.0609
672.00,0.0695
659.00,0.0739
646.00,0.0727
633.00,0.0691
620.00,0.0750
607.00,0.0738
594.00,0.0867
581.00,0.0881
568.00,0.0857
555.00,0.0894
542.00,0.0925
529.00,0.0919
516.00,0.0773
503.00,0.0775
490.00,0.0771
477.00,0.0724
464.00,0.0703
451.00,0.0683
438.00,0.0661
425.00,0.0632
412.00,0.0650
400.00,0.0593