Folder: Data/FTIR/Olivia (part 23)

File: 2025_08_06_Polystyrene_film_scan1.csv
Created as New Dataset,Sample 1081 By YargerLab Date Tuesday, August 05 2025
cm-1,A
4000.00,0.0002
3987.00,0.0001
3974.00,0.0001
3961.00,0.0002
3948.00,0.0002
3935.00,0.0002
3922.00,0.0002
3909.00,0.0002
3896.00,0.0003
3883.00,0.0003
3870.00,0.0004
3857.00,0.0004
3844.00,0.0003
3831.00,0.0004
3818.00,0.0006
3805.00,0.0005
3792.00,0.0002
3779.00,0.0002
3766.00,0.0004
3753.00,0.0007
3740.00,0.0005
3727.00,0.0003
3714.00,0.0003
3701.00,0.0001
3688.00,0.0005
3675.00,0.0005
3662.00,0.0003
3649.00,0.0007
3636.00,0.0003
3623.00,0.0004
3610.00,0.0005
3597.00,0.0004
3584.00,0.0005
3571.00,0.0006
3558.00,0.0006
3545.00,0.0007
3532.00,0.0008
3519.00,0.0009
3506.00,0.0009
3493.00,0.0010
3480.00,0.0012
3467.00,0.0012
3454.00,0.0013
3441.00,0.0013
3428.00,0.0014
3415.00,0.0014
3402.00,0.0015
3389.00,0.0014
3376.00,0.0014
3363.00,0.0014
3350.00,0.0013
3337.00,0.0013
3324.00,0.0013
3311.00,0.0013
3298.00,0.0012
3285.00,0.0012
3272.00,0.0012
3259.00,0.0012
3246.00,0.0011
3233.00,0.0010
3220.00,0.0010
3207.00,0.0010
3194.00,0.0009
3181.00,0.0008
3168.00,0.0008
3155.00,0.0008
3142.00,0.0007
3129.00,0.0006
3116.00,0.0008
3103.00,0.0017
3090.00,0.0021
3077.00,0.0034
3064.00,0.0047
3051.00,0.0036
3038.00,0.0037
3025.00,0.0110
3012.00,0.0031
2999.00,0.0035
2986.00,0.0026
2973.00,0.0035
2960.00,0.0039
2947.00,0.0053
2934.00,0.0101
2921.00,0.0142
2908.00,0.0108
2895.00,0.0066
2882.00,0.0047
2869.00,0.0037
2856.00,0.0052
2843.00,0.0049
2830.00,0.0015
2817.00,0.0010
2804.00,0.0009
2791.00,0.0007
2778.00,0.0007
2765.00,0.0006
2752.00,0.0005
2739.00,0.0005
2726.00,0.0006
2713.00,0.0006
2700.00,0.0005
2687.00,0.0006
2674.00,0.0005
2661.00,0.0009
2648.00,0.0011
2635.00,0.0011
2622.00,0.0010
2609.00,0.0009
2596.00,0.0007
2583.00,0.0007
2570.00,0.0006
2557.00,0.0005
2544.00,0.0003
2531.00,0.0004
2518.00,0.0004
2505.00,0.0003
2492.00,0.0002
2479.00,0.0002
2466.00,0.0002
2453.00,0.0003
2440.00,0.0001
2427.00,0.0001
2414.00,0.0000
2401.00,-0.0002
2388.00,-0.0002
2375.00,-0.0004
2362.00,-0.0003
2349.00,-0.0002
2336.00,0.0002
2323.00,0.0013
2310.00,0.0006
2297.00,0.0007
2284.00,0.0011
2271.00,0.0007
2258.00,0.0006
2245.00,0.0004
2232.00,0.0004
2219.00,0.0002
2206.00,0.0002
2193.00,0.0005
2180.00,-0.0002
2167.00,0.0011
2154.00,-0.0023
2141.00,-0.0016
2128.00,-0.0011
2115.00,-0.0000
2102.00,-0.0000
2089.00,-0.0001
2076.00,0.0001
2063.00,-0.0002
2050.00,0.0008
2037.00,0.0002
2024.00,-0.0008
2011.00,-0.0006
1998.00,-0.0005
1985.00,0.0004
1972.00,-0.0007
1959.00,-0.0006
1946.00,0.0006
1933.00,-0.0001
1920.00,-0.0005
1907.00,-0.0005
1894.00,0.0000
1881.00,0.0006
1868.00,0.0008
1855.00,0.0000
1842.00,-0.0002
1829.00,0.0000
1816.00,0.0004
1803.00,0.0013
1790.00,0.0007
1777.00,0.0006
1764.00,0.0008
1751.00,0.0016
1738.00,0.0018
1725.00,0.0015
1712.00,0.0013
1699.00,0.0014
1686.00,0.0026
1673.00,0.0041
1660.00,0.0046
1647.00,0.0029
1634.00,0.0018
1621.00,0.0019
1608.00,0.0047
1595.00,0.0064
1582.00,0.0051
1569.00,0.0014
1556.00,0.0012
1543.00,0.0021
1530.00,0.0014
1517.00,0.0013
1504.00,0.0029
1491.00,0.0296
1478.00,0.0039
1465.00,0.0049
1452.00,0.0321
1439.00,0.0128
1426.00,0.0043
1413.00,0.0031
1400.00,0.0031
1387.00,0.0051
1374.00,0.0078
1361.00,0.0070
1348.00,0.0061
1335.00,0.0055
1322.00,0.0061
1309.00,0.0062
1296.00,0.0060
1283.00,0.0051
1270.00,0.0041
1257.00,0.0037
1244.00,0.0037
1231.00,0.0036
1218.00,0.0036
1205.00,0.0045
1192.00,0.0057
1179.00,0.0073
1166.00,0.0051
1153.00,0.0082
1140.00,0.0038
1127.00,0.0040
1114.00,0.0048
1101.00,0.0049
1088.00,0.0059
1075.00,0.0093
1062.00,0.0093
1049.00,0.0061
1036.00,0.0080
1023.00,0.0137
1010.00,0.0075
997.00,0.0060
984.00,0.0068
971.00,0.0071
958.00,0.0075
945.00,0.0072
932.00,0.0050
919.00,0.0056
906.00,0.0130
893.00,0.0049
880.00,0.0035
867.00,0.0032
854.00,0.0036
841.00,0.0069
828.00,0.0033
815.00,0.0035
802.00,0.0038
789.00,0.0069
776.00,0.0170
763.00,0.0443
750.00,0.0568
737.00,0.0249
724.00,0.0071
711.00,0.0158
698.00,0.1563
685.00,0.0597
672.00,0.0268
659.00,0.0163
646.00,0.0101
633.00,0.0112
620.00,0.0135
607.00,0.0105
594.00,0.0119
581.00,0.0149
568.00,0.0250
555.00,0.0362
542.00,0.0568
529.00,0.0415
516.00,0.0213
503.00,0.0142
490.00,0.0116
477.00,0.0099
464.00,0.0083
451.00,0.0080
438.00,0.0066
425.00,0.0077
412.00,0.0061
400.00,0.0069

File: 2025_08_06_Polystyrene_film_scan2.csv
Created as New Dataset,Sample 1083 By YargerLab Date Wednesday, August 06 2025
cm-1,A
4000.00,0.0007
3987.00,0.0007
3974.00,0.0007
3961.00,0.0007
3948.00,0.0007
3935.00,0.0007
3922.00,0.0008
3909.00,0.0007
3896.00,0.0007
3883.00,0.0008
3870.00,0.0009
3857.00,0.0009
3844.00,0.0008
3831.00,0.0009
3818.00,0.0010
3805.00,0.0010
3792.00,0.0008
3779.00,0.0008
3766.00,0.0008
3753.00,0.0011
3740.00,0.0010
3727.00,0.0008
3714.00,0.0008
3701.00,0.0007
3688.00,0.0009
3675.00,0.0010
3662.00,0.0008
3649.00,0.0012
3636.00,0.0008
3623.00,0.0008
3610.00,0.0008
3597.00,0.0008
3584.00,0.0008
3571.00,0.0008
3558.00,0.0009
3545.00,0.0009
3532.00,0.0010
3519.00,0.0011
3506.00,0.0011
3493.00,0.0011
3480.00,0.0012
3467.00,0.0012
3454.00,0.0012
3441.00,0.0012
3428.00,0.0012
3415.00,0.0012
3402.00,0.0012
3389.00,0.0011
3376.00,0.0012
3363.00,0.0012
3350.00,0.0011
3337.00,0.0011
3324.00,0.0011
3311.00,0.0011
3298.00,0.0010
3285.00,0.0010
3272.00,0.0011
3259.00,0.0010
3246.00,0.0010
3233.00,0.0009
3220.00,0.0009
3207.00,0.0010
3194.00,0.0010
3181.00,0.0008
3168.00,0.0008
3155.00,0.0008
3142.00,0.0008
3129.00,0.0008
3116.00,0.0011
3103.00,0.0025
3090.00,0.0033
3077.00,0.0052
3064.00,0.0074
3051.00,0.0056
3038.00,0.0059
3025.00,0.0172
3012.00,0.0047
2999.00,0.0050
2986.00,0.0031
2973.00,0.0034
2960.00,0.0039
2947.00,0.0068
2934.00,0.0139
2921.00,0.0196
2908.00,0.0153
2895.00,0.0091
2882.00,0.0063
2869.00,0.0048
2856.00,0.0069
2843.00,0.0070
2830.00,0.0024
2817.00,0.0017
2804.00,0.0016
2791.00,0.0013
2778.00,0.0013
2765.00,0.0012
2752.00,0.0011
2739.00,0.0011
2726.00,0.0011
2713.00,0.0012
2700.00,0.0011
2687.00,0.0012
2674.00,0.0011
2661.00,0.0015
2648.00,0.0017
2635.00,0.0017
2622.00,0.0015
2609.00,0.0014
2596.00,0.0014
2583.00,0.0012
2570.00,0.0010
2557.00,0.0010
2544.00,0.0008
2531.00,0.0009
2518.00,0.0009
2505.00,0.0008
2492.00,0.0007
2479.00,0.0008
2466.00,0.0007
2453.00,0.0008
2440.00,0.0007
2427.00,0.0005
2414.00,0.0005
2401.00,0.0004
2388.00,0.0004
2375.00,0.0003
2362.00,0.0004
2349.00,0.0005
2336.00,0.0010
2323.00,0.0019
2310.00,0.0013
2297.00,0.0013
2284.00,0.0016
2271.00,0.0013
2258.00,0.0010
2245.00,0.0008
2232.00,0.0009
2219.00,0.0008
2206.00,0.0006
2193.00,0.0009
2180.00,0.0002
2167.00,0.0015
2154.00,-0.0016
2141.00,-0.0013
2128.00,-0.0007
2115.00,0.0003
2102.00,0.0002
2089.00,0.0002
2076.00,0.0005
2063.00,0.0002
2050.00,0.0010
2037.00,0.0004
2024.00,-0.0003
2011.00,-0.0002
1998.00,-0.0000
1985.00,0.0008
1972.00,-0.0002
1959.00,0.0003
1946.00,0.0019
1933.00,0.0008
1920.00,0.0001
1907.00,0.0000
1894.00,0.0007
1881.00,0.0016
1868.00,0.0020
1855.00,0.0008
1842.00,0.0003
1829.00,0.0007
1816.00,0.0013
1803.00,0.0025
1790.00,0.0015
1777.00,0.0013
1764.00,0.0016
1751.00,0.0026
1738.00,0.0030
1725.00,0.0023
1712.00,0.0019
1699.00,0.0019
1686.00,0.0023
1673.00,0.0029
1660.00,0.0030
1647.00,0.0022
1634.00,0.0018
1621.00,0.0021
1608.00,0.0069
1595.00,0.0094
1582.00,0.0074
1569.00,0.0021
1556.00,0.0018
1543.00,0.0028
1530.00,0.0020
1517.00,0.0018
1504.00,0.0039
1491.00,0.0430
1478.00,0.0054
1465.00,0.0055
1452.00,0.0470
1439.00,0.0174
1426.00,0.0052
1413.00,0.0038
1400.00,0.0039
1387.00,0.0067
1374.00,0.0104
1361.00,0.0094
1348.00,0.0085
1335.00,0.0076
1322.00,0.0082
1309.00,0.0084
1296.00,0.0070
1283.00,0.0061
1270.00,0.0050
1257.00,0.0046
1244.00,0.0049
1231.00,0.0046
1218.00,0.0047
1205.00,0.0060
1192.00,0.0075
1179.00,0.0099
1166.00,0.0063
1153.00,0.0107
1140.00,0.0047
1127.00,0.0044
1114.00,0.0059
1101.00,0.0060
1088.00,0.0076
1075.00,0.0123
1062.00,0.0121
1049.00,0.0079
1036.00,0.0108
1023.00,0.0187
1010.00,0.0100
997.00,0.0080
984.00,0.0092
971.00,0.0094
958.00,0.0093
945.00,0.0090
932.00,0.0065
919.00,0.0073
906.00,0.0177
893.00,0.0064
880.00,0.0046
867.00,0.0040
854.00,0.0046
841.00,0.0090
828.00,0.0041
815.00,0.0041
802.00,0.0046
789.00,0.0088
776.00,0.0226
763.00,0.0595
750.00,0.0765
737.00,0.0325
724.00,0.0088
711.00,0.0204
698.00,0.2074
685.00,0.0744
672.00,0.0332
659.00,0.0198
646.00,0.0124
633.00,0.0140
620.00,0.0166
607.00,0.0128
594.00,0.0145
581.00,0.0186
568.00,0.0315
555.00,0.0454
542.00,0.0717
529.00,0.0512
516.00,0.0256
503.00,0.0169
490.00,0.0134
477.00,0.0111
464.00,0.0105
451.00,0.0088
438.00,0.0091
425.00,0.0078
412.00,0.0075
400.00,0.0074

File: 2025_08_06_Polystyrene_film_scan3.csv
Created as New Dataset,Sample 1084 By YargerLab Date Wednesday, August 06 2025
cm-1,A
4000.00,0.0004
3987.00,0.0004
3974.00,0.0003
3961.00,0.0004
3948.00,0.0004
3935.00,0.0003
3922.00,0.0004
3909.00,0.0004
3896.00,0.0003
3883.00,0.0003
3870.00,0.0002
3857.00,0.0003
3844.00,0.0003
3831.00,0.0004
3818.00,0.0003
3805.00,0.0003
3792.00,0.0004
3779.00,0.0003
3766.00,0.0003
3753.00,0.0003
3740.00,0.0002
3727.00,0.0002
3714.00,0.0002
3701.00,0.0003
3688.00,0.0002
3675.00,0.0003
3662.00,0.0004
3649.00,0.0004
3636.00,0.0003
3623.00,0.0002
3610.00,0.0001
3597.00,0.0001
3584.00,0.0002
3571.00,0.0002
3558.00,0.0003
3545.00,0.0003
3532.00,0.0004
3519.00,0.0004
3506.00,0.0004
3493.00,0.0004
3480.00,0.0005
3467.00,0.0005
3454.00,0.0005
3441.00,0.0005
3428.00,0.0005
3415.00,0.0004
3402.00,0.0005
3389.00,0.0004
3376.00,0.0004
3363.00,0.0004
3350.00,0.0004
3337.00,0.0004
3324.00,0.0004
3311.00,0.0004
3298.00,0.0003
3285.00,0.0003
3272.00,0.0004
3259.00,0.0003
3246.00,0.0003
3233.00,0.0003
3220.00,0.0003
3207.00,0.0003
3194.00,0.0003
3181.00,0.0002
3168.00,0.0003
3155.00,0.0003
3142.00,0.0003
3129.00,0.0002
3116.00,0.0004
3103.00,0.0014
3090.00,0.0018
3077.00,0.0031
3064.00,0.0044
3051.00,0.0034
3038.00,0.0035
3025.00,0.0107
3012.00,0.0028
2999.00,0.0030
2986.00,0.0016
2973.00,0.0017
2960.00,0.0016
2947.00,0.0034
2934.00,0.0074
2921.00,0.0106
2908.00,0.0086
2895.00,0.0049
2882.00,0.0033
2869.00,0.0022
2856.00,0.0032
2843.00,0.0037
2830.00,0.0011
2817.00,0.0008
2804.00,0.0007
2791.00,0.0006
2778.00,0.0006
2765.00,0.0005
2752.00,0.0005
2739.00,0.0005
2726.00,0.0005
2713.00,0.0005
2700.00,0.0005
2687.00,0.0005
2674.00,0.0006
2661.00,0.0009
2648.00,0.0011
2635.00,0.0010
2622.00,0.0009
2609.00,0.0008
2596.00,0.0008
2583.00,0.0007
2570.00,0.0005
2557.00,0.0005
2544.00,0.0004
2531.00,0.0004
2518.00,0.0004
2505.00,0.0004
2492.00,0.0003
2479.00,0.0003
2466.00,0.0004
2453.00,0.0004
2440.00,0.0002
2427.00,0.0002
2414.00,0.0001
2401.00,-0.0000
2388.00,-0.0001
2375.00,-0.0002
2362.00,-0.0001
2349.00,0.0000
2336.00,0.0003
2323.00,0.0013
2310.00,0.0007
2297.00,0.0008
2284.00,0.0011
2271.00,0.0007
2258.00,0.0005
2245.00,0.0003
2232.00,0.0005
2219.00,0.0005
2206.00,0.0003
2193.00,0.0006
2180.00,-0.0001
2167.00,0.0012
2154.00,-0.0018
2141.00,-0.0015
2128.00,-0.0009
2115.00,-0.0000
2102.00,0.0002
2089.00,0.0001
2076.00,0.0002
2063.00,-0.0000
2050.00,0.0007
2037.00,0.0006
2024.00,-0.0005
2011.00,-0.0003
1998.00,-0.0004
1985.00,0.0005
1972.00,-0.0006
1959.00,-0.0004
1946.00,0.0008
1933.00,0.0002
1920.00,-0.0003
1907.00,-0.0004
1894.00,0.0001
1881.00,0.0008
1868.00,0.0010
1855.00,0.0003
1842.00,-0.0000
1829.00,0.0002
1816.00,0.0005
1803.00,0.0015
1790.00,0.0008
1777.00,0.0007
1764.00,0.0009
1751.00,0.0016
1738.00,0.0017
1725.00,0.0013
1712.00,0.0010
1699.00,0.0006
1686.00,-0.0002
1673.00,0.0002
1660.00,0.0005
1647.00,0.0006
1634.00,0.0007
1621.00,0.0010
1608.00,0.0040
1595.00,0.0059
1582.00,0.0045
1569.00,0.0011
1556.00,0.0011
1543.00,0.0020
1530.00,0.0013
1517.00,0.0013
1504.00,0.0024
1491.00,0.0285
1478.00,0.0034
1465.00,0.0030
1452.00,0.0299
1439.00,0.0108
1426.00,0.0026
1413.00,0.0021
1400.00,0.0024
1387.00,0.0043
1374.00,0.0066
1361.00,0.0060
1348.00,0.0054
1335.00,0.0048
1322.00,0.0051
1309.00,0.0053
1296.00,0.0041
1283.00,0.0034
1270.00,0.0029
1257.00,0.0028
1244.00,0.0030
1231.00,0.0028
1218.00,0.0029
1205.00,0.0039
1192.00,0.0050
1179.00,0.0067
1166.00,0.0041
1153.00,0.0072
1140.00,0.0031
1127.00,0.0028
1114.00,0.0038
1101.00,0.0039
1088.00,0.0051
1075.00,0.0083
1062.00,0.0081
1049.00,0.0053
1036.00,0.0073
1023.00,0.0129
1010.00,0.0069
997.00,0.0056
984.00,0.0065
971.00,0.0067
958.00,0.0067
945.00,0.0064
932.00,0.0046
919.00,0.0052
906.00,0.0125
893.00,0.0045
880.00,0.0032
867.00,0.0027
854.00,0.0031
841.00,0.0064
828.00,0.0029
815.00,0.0027
802.00,0.0031
789.00,0.0063
776.00,0.0162
763.00,0.0424
750.00,0.0548
737.00,0.0235
724.00,0.0064
711.00,0.0148
698.00,0.1502
685.00,0.0580
672.00,0.0256
659.00,0.0153
646.00,0.0094
633.00,0.0104
620.00,0.0125
607.00,0.0097
594.00,0.0110
581.00,0.0140
568.00,0.0238
555.00,0.0344
542.00,0.0545
529.00,0.0400
516.00,0.0203
503.00,0.0136
490.00,0.0110
477.00,0.0099
464.00,0.0087
451.00,0.0073
438.00,0.0078
425.00,0.0076
412.00,0.0058
400.00,0.0083

File: 2025_08_07_Polystyrene_film_scan1.csv
Created as New Dataset,Sample 012 By YargerLab Date Thursday, August 07 2025
cm-1,A
4000.00,0.0012
3987.00,0.0011
3974.00,0.0011
3961.00,0.0011
3948.00,0.0012
3935.00,0.0012
3922.00,0.0012
3909.00,0.0012
3896.00,0.0012
3883.00,0.0013
3870.00,0.0014
3857.00,0.0014
3844.00,0.0013
3831.00,0.0014
3818.00,0.0015
3805.00,0.0015
3792.00,0.0013
3779.00,0.0013
3766.00,0.0014
3753.00,0.0016
3740.00,0.0016
3727.00,0.0014
3714.00,0.0013
3701.00,0.0012
3688.00,0.0015
3675.00,0.0015
3662.00,0.0012
3649.00,0.0015
3636.00,0.0012
3623.00,0.0012
3610.00,0.0013
3597.00,0.0012
3584.00,0.0012
3571.00,0.0012
3558.00,0.0012
3545.00,0.0013
3532.00,0.0013
3519.00,0.0014
3506.00,0.0015
3493.00,0.0015
3480.00,0.0016
3467.00,0.0016
3454.00,0.0016
3441.00,0.0016
3428.00,0.0016
3415.00,0.0016
3402.00,0.0017
3389.00,0.0017
3376.00,0.0017
3363.00,0.0017
3350.00,0.0017
3337.00,0.0018
3324.00,0.0017
3311.00,0.0017
3298.00,0.0018
3285.00,0.0017
3272.00,0.0017
3259.00,0.0016
3246.00,0.0016
3233.00,0.0016
3220.00,0.0016
3207.00,0.0016
3194.00,0.0015
3181.00,0.0015
3168.00,0.0015
3155.00,0.0015
3142.00,0.0014
3129.00,0.0014
3116.00,0.0018
3103.00,0.0030
3090.00,0.0045
3077.00,0.0056
3064.00,0.0082
3051.00,0.0060
3038.00,0.0070
3025.00,0.0168
3012.00,0.0055
2999.00,0.0052
2986.00,0.0034
2973.00,0.0037
2960.00,0.0053
2947.00,0.0088
2934.00,0.0165
2921.00,0.0218
2908.00,0.0172
2895.00,0.0109
2882.00,0.0081
2869.00,0.0069
2856.00,0.0095
2843.00,0.0085
2830.00,0.0036
2817.00,0.0028
2804.00,0.0025
2791.00,0.0022
2778.00,0.0021
2765.00,0.0019
2752.00,0.0019
2739.00,0.0018
2726.00,0.0019
2713.00,0.0018
2700.00,0.0018
2687.00,0.0018
2674.00,0.0018
2661.00,0.0022
2648.00,0.0024
2635.00,0.0024
2622.00,0.0021
2609.00,0.0022
2596.00,0.0019
2583.00,0.0019
2570.00,0.0017
2557.00,0.0016
2544.00,0.0016
2531.00,0.0014
2518.00,0.0015
2505.00,0.0014
2492.00,0.0013
2479.00,0.0012
2466.00,0.0012
2453.00,0.0014
2440.00,0.0012
2427.00,0.0010
2414.00,0.0010
2401.00,0.0008
2388.00,0.0008
2375.00,0.0008
2362.00,0.0009
2349.00,0.0011
2336.00,0.0015
2323.00,0.0026
2310.00,0.0018
2297.00,0.0019
2284.00,0.0023
2271.00,0.0018
2258.00,0.0017
2245.00,0.0015
2232.00,0.0013
2219.00,0.0011
2206.00,0.0014
2193.00,0.0013
2180.00,0.0011
2167.00,0.0020
2154.00,-0.0016
2141.00,-0.0011
2128.00,-0.0004
2115.00,0.0010
2102.00,0.0008
2089.00,0.0007
2076.00,0.0011
2063.00,0.0006
2050.00,0.0018
2037.00,0.0012
2024.00,-0.0003
2011.00,0.0007
1998.00,0.0006
1985.00,0.0017
1972.00,0.0003
1959.00,0.0005
1946.00,0.0024
1933.00,0.0014
1920.00,0.0009
1907.00,0.0007
1894.00,0.0014
1881.00,0.0022
1868.00,0.0025
1855.00,0.0013
1842.00,0.0009
1829.00,0.0013
1816.00,0.0019
1803.00,0.0031
1790.00,0.0022
1777.00,0.0019
1764.00,0.0022
1751.00,0.0037
1738.00,0.0043
1725.00,0.0034
1712.00,0.0029
1699.00,0.0029
1686.00,0.0036
1673.00,0.0041
1660.00,0.0040
1647.00,0.0032
1634.00,0.0026
1621.00,0.0031
1608.00,0.0081
1595.00,0.0093
1582.00,0.0077
1569.00,0.0027
1556.00,0.0025
1543.00,0.0034
1530.00,0.0026
1517.00,0.0025
1504.00,0.0044
1491.00,0.0375
1478.00,0.0057
1465.00,0.0062
1452.00,0.0431
1439.00,0.0172
1426.00,0.0066
1413.00,0.0049
1400.00,0.0049
1387.00,0.0071
1374.00,0.0104
1361.00,0.0099
1348.00,0.0088
1335.00,0.0083
1322.00,0.0086
1309.00,0.0087
1296.00,0.0077
1283.00,0.0072
1270.00,0.0059
1257.00,0.0054
1244.00,0.0056
1231.00,0.0055
1218.00,0.0056
1205.00,0.0065
1192.00,0.0080
1179.00,0.0100
1166.00,0.0069
1153.00,0.0107
1140.00,0.0053
1127.00,0.0050
1114.00,0.0064
1101.00,0.0067
1088.00,0.0081
1075.00,0.0122
1062.00,0.0122
1049.00,0.0084
1036.00,0.0115
1023.00,0.0176
1010.00,0.0107
997.00,0.0087
984.00,0.0097
971.00,0.0095
958.00,0.0091
945.00,0.0085
932.00,0.0066
919.00,0.0075
906.00,0.0159
893.00,0.0069
880.00,0.0051
867.00,0.0045
854.00,0.0050
841.00,0.0089
828.00,0.0045
815.00,0.0044
802.00,0.0047
789.00,0.0083
776.00,0.0200
763.00,0.0504
750.00,0.0649
737.00,0.0301
724.00,0.0088
711.00,0.0193
698.00,0.1613
685.00,0.0618
672.00,0.0293
659.00,0.0188
646.00,0.0130
633.00,0.0140
620.00,0.0161
607.00,0.0128
594.00,0.0141
581.00,0.0176
568.00,0.0272
555.00,0.0382
542.00,0.0601
529.00,0.0448
516.00,0.0241
503.00,0.0172
490.00,0.0135
477.00,0.0130
464.00,0.0121
451.00,0.0113
438.00,0.0104
425.00,0.0094
412.00,0.0091
400.00,0.0091

File: 2025_08_07_Polystyrene_film_scan2.csv
Created as New Dataset,Sample 013 By YargerLab Date Thursday, August 07 2025
cm-1,A
4000.00,0.0007
3987.00,0.0006
3974.00,0.0006
3961.00,0.0007
3948.00,0.0007
3935.00,0.0007
3922.00,0.0006
3909.00,0.0006
3896.00,0.0007
3883.00,0.0007
3870.00,0.0009
3857.00,0.0009
3844.00,0.0007
3831.00,0.0009
3818.00,0.0010
3805.00,0.0009
3792.00,0.0008
3779.00,0.0008
3766.00,0.0008
3753.00,0.0010
3740.00,0.0010
3727.00,0.0009
3714.00,0.0008
3701.00,0.0008
3688.00,0.0009
3675.00,0.0009
3662.00,0.0007
3649.00,0.0009
3636.00,0.0007
3623.00,0.0008
3610.00,0.0007
3597.00,0.0006
3584.00,0.0006
3571.00,0.0006
3558.00,0.0006
3545.00,0.0006
3532.00,0.0007
3519.00,0.0008
3506.00,0.0009
3493.00,0.0008
3480.00,0.0008
3467.00,0.0008
3454.00,0.0008
3441.00,0.0008
3428.00,0.0009
3415.00,0.0008
3402.00,0.0009
3389.00,0.0009
3376.00,0.0008
3363.00,0.0008
3350.00,0.0009
3337.00,0.0009
3324.00,0.0008
3311.00,0.0008
3298.00,0.0008
3285.00,0.0008
3272.00,0.0009
3259.00,0.0009
3246.00,0.0007
3233.00,0.0008
3220.00,0.0008
3207.00,0.0008
3194.00,0.0007
3181.00,0.0007
3168.00,0.0007
3155.00,0.0008
3142.00,0.0006
3129.00,0.0007
3116.00,0.0010
3103.00,0.0021
3090.00,0.0033
3077.00,0.0042
3064.00,0.0064
3051.00,0.0046
3038.00,0.0055
3025.00,0.0134
3012.00,0.0041
2999.00,0.0038
2986.00,0.0021
2973.00,0.0023
2960.00,0.0035
2947.00,0.0065
2934.00,0.0126
2921.00,0.0166
2908.00,0.0130
2895.00,0.0081
2882.00,0.0058
2869.00,0.0048
2856.00,0.0068
2843.00,0.0062
2830.00,0.0024
2817.00,0.0018
2804.00,0.0016
2791.00,0.0014
2778.00,0.0013
2765.00,0.0012
2752.00,0.0011
2739.00,0.0011
2726.00,0.0011
2713.00,0.0011
2700.00,0.0011
2687.00,0.0011
2674.00,0.0011
2661.00,0.0015
2648.00,0.0017
2635.00,0.0018
2622.00,0.0015
2609.00,0.0015
2596.00,0.0013
2583.00,0.0012
2570.00,0.0011
2557.00,0.0009
2544.00,0.0009
2531.00,0.0008
2518.00,0.0008
2505.00,0.0008
2492.00,0.0008
2479.00,0.0007
2466.00,0.0007
2453.00,0.0008
2440.00,0.0006
2427.00,0.0005
2414.00,0.0005
2401.00,0.0003
2388.00,0.0002
2375.00,0.0002
2362.00,0.0003
2349.00,0.0005
2336.00,0.0008
2323.00,0.0018
2310.00,0.0012
2297.00,0.0013
2284.00,0.0017
2271.00,0.0011
2258.00,0.0011
2245.00,0.0010
2232.00,0.0008
2219.00,0.0006
2206.00,0.0009
2193.00,0.0009
2180.00,0.0007
2167.00,0.0016
2154.00,-0.0019
2141.00,-0.0013
2128.00,-0.0009
2115.00,0.0004
2102.00,0.0002
2089.00,0.0003
2076.00,0.0007
2063.00,0.0002
2050.00,0.0013
2037.00,0.0009
2024.00,-0.0004
2011.00,0.0003
1998.00,0.0001
1985.00,0.0011
1972.00,-0.0001
1959.00,0.0001
1946.00,0.0012
1933.00,0.0007
1920.00,0.0002
1907.00,0.0003
1894.00,0.0008
1881.00,0.0013
1868.00,0.0015
1855.00,0.0007
1842.00,0.0003
1829.00,0.0006
1816.00,0.0010
1803.00,0.0020
1790.00,0.0013
1777.00,0.0011
1764.00,0.0013
1751.00,0.0021
1738.00,0.0024
1725.00,0.0019
1712.00,0.0016
1699.00,0.0015
1686.00,0.0015
1673.00,0.0016
1660.00,0.0016
1647.00,0.0012
1634.00,0.0012
1621.00,0.0015
1608.00,0.0055
1595.00,0.0064
1582.00,0.0051
1569.00,0.0014
1556.00,0.0014
1543.00,0.0019
1530.00,0.0014
1517.00,0.0012
1504.00,0.0028
1491.00,0.0269
1478.00,0.0037
1465.00,0.0038
1452.00,0.0304
1439.00,0.0119
1426.00,0.0039
1413.00,0.0029
1400.00,0.0029
1387.00,0.0045
1374.00,0.0069
1361.00,0.0065
1348.00,0.0058
1335.00,0.0054
1322.00,0.0056
1309.00,0.0057
1296.00,0.0048
1283.00,0.0044
1270.00,0.0035
1257.00,0.0033
1244.00,0.0033
1231.00,0.0033
1218.00,0.0033
1205.00,0.0041
1192.00,0.0052
1179.00,0.0066
1166.00,0.0042
1153.00,0.0070
1140.00,0.0031
1127.00,0.0030
1114.00,0.0039
1101.00,0.0042
1088.00,0.0052
1075.00,0.0083
1062.00,0.0080
1049.00,0.0052
1036.00,0.0077
1023.00,0.0118
1010.00,0.0068
997.00,0.0055
984.00,0.0064
971.00,0.0064
958.00,0.0060
945.00,0.0055
932.00,0.0042
919.00,0.0049
906.00,0.0106
893.00,0.0043
880.00,0.0031
867.00,0.0026
854.00,0.0030
841.00,0.0056
828.00,0.0025
815.00,0.0023
802.00,0.0026
789.00,0.0051
776.00,0.0131
763.00,0.0323
750.00,0.0411
737.00,0.0195
724.00,0.0052
711.00,0.0128
698.00,0.0901
685.00,0.0366
672.00,0.0178
659.00,0.0114
646.00,0.0078
633.00,0.0084
620.00,0.0097
607.00,0.0079
594.00,0.0086
581.00,0.0108
568.00,0.0168
555.00,0.0235
542.00,0.0360
529.00,0.0268
516.00,0.0147
503.00,0.0104
490.00,0.0079
477.00,0.0074
464.00,0.0073
451.00,0.0068
438.00,0.0067
425.00,0.0051
412.00,0.0064
400.00,0.0033

File: 2025_08_07_Polystyrene_film_scan3.csv
Created as New Dataset,Sample 014 By YargerLab Date Thursday, August 07 2025
cm-1,A
4000.00,0.0006
3987.00,0.0006
3974.00,0.0005
3961.00,0.0006
3948.00,0.0005
3935.00,0.0006
3922.00,0.0006
3909.00,0.0006
3896.00,0.0006
3883.00,0.0006
3870.00,0.0006
3857.00,0.0007
3844.00,0.0006
3831.00,0.0007
3818.00,0.0007
3805.00,0.0007
3792.00,0.0007
3779.00,0.0006
3766.00,0.0007
3753.00,0.0008
3740.00,0.0007
3727.00,0.0007
3714.00,0.0006
3701.00,0.0006
3688.00,0.0007
3675.00,0.0006
3662.00,0.0006
3649.00,0.0007
3636.00,0.0006
3623.00,0.0006
3610.00,0.0005
3597.00,0.0005
3584.00,0.0005
3571.00,0.0005
3558.00,0.0006
3545.00,0.0006
3532.00,0.0006
3519.00,0.0007
3506.00,0.0007
3493.00,0.0008
3480.00,0.0008
3467.00,0.0007
3454.00,0.0008
3441.00,0.0008
3428.00,0.0008
3415.00,0.0008
3402.00,0.0008
3389.00,0.0009
3376.00,0.0008
3363.00,0.0008
3350.00,0.0008
3337.00,0.0008
3324.00,0.0008
3311.00,0.0008
3298.00,0.0009
3285.00,0.0008
3272.00,0.0008
3259.00,0.0008
3246.00,0.0008
3233.00,0.0008
3220.00,0.0008
3207.00,0.0008
3194.00,0.0007
3181.00,0.0007
3168.00,0.0008
3155.00,0.0007
3142.00,0.0007
3129.00,0.0007
3116.00,0.0010
3103.00,0.0021
3090.00,0.0033
3077.00,0.0043
3064.00,0.0064
3051.00,0.0046
3038.00,0.0055
3025.00,0.0136
3012.00,0.0042
2999.00,0.0039
2986.00,0.0022
2973.00,0.0026
2960.00,0.0039
2947.00,0.0069
2934.00,0.0133
2921.00,0.0174
2908.00,0.0135
2895.00,0.0083
2882.00,0.0060
2869.00,0.0050
2856.00,0.0072
2843.00,0.0063
2830.00,0.0024
2817.00,0.0018
2804.00,0.0015
2791.00,0.0013
2778.00,0.0013
2765.00,0.0011
2752.00,0.0011
2739.00,0.0010
2726.00,0.0011
2713.00,0.0011
2700.00,0.0010
2687.00,0.0010
2674.00,0.0011
2661.00,0.0014
2648.00,0.0016
2635.00,0.0017
2622.00,0.0014
2609.00,0.0015
2596.00,0.0012
2583.00,0.0012
2570.00,0.0010
2557.00,0.0009
2544.00,0.0009
2531.00,0.0008
2518.00,0.0008
2505.00,0.0007
2492.00,0.0007
2479.00,0.0006
2466.00,0.0006
2453.00,0.0007
2440.00,0.0005
2427.00,0.0004
2414.00,0.0004
2401.00,0.0002
2388.00,0.0001
2375.00,0.0001
2362.00,0.0002
2349.00,0.0003
2336.00,0.0008
2323.00,0.0018
2310.00,0.0011
2297.00,0.0013
2284.00,0.0015
2271.00,0.0012
2258.00,0.0009
2245.00,0.0008
2232.00,0.0006
2219.00,0.0006
2206.00,0.0007
2193.00,0.0010
2180.00,0.0005
2167.00,0.0014
2154.00,-0.0020
2141.00,-0.0014
2128.00,-0.0010
2115.00,0.0003
2102.00,0.0002
2089.00,0.0002
2076.00,0.0004
2063.00,0.0002
2050.00,0.0010
2037.00,0.0009
2024.00,-0.0004
2011.00,0.0000
1998.00,0.0002
1985.00,0.0011
1972.00,-0.0005
1959.00,-0.0003
1946.00,0.0014
1933.00,0.0005
1920.00,0.0002
1907.00,0.0001
1894.00,0.0007
1881.00,0.0012
1868.00,0.0015
1855.00,0.0005
1842.00,0.0002
1829.00,0.0005
1816.00,0.0009
1803.00,0.0019
1790.00,0.0012
1777.00,0.0010
1764.00,0.0012
1751.00,0.0022
1738.00,0.0025
1725.00,0.0020
1712.00,0.0017
1699.00,0.0016
1686.00,0.0017
1673.00,0.0019
1660.00,0.0019
1647.00,0.0015
1634.00,0.0013
1621.00,0.0017
1608.00,0.0056
1595.00,0.0064
1582.00,0.0053
1569.00,0.0014
1556.00,0.0013
1543.00,0.0019
1530.00,0.0013
1517.00,0.0011
1504.00,0.0029
1491.00,0.0273
1478.00,0.0037
1465.00,0.0039
1452.00,0.0310
1439.00,0.0121
1426.00,0.0040
1413.00,0.0030
1400.00,0.0030
1387.00,0.0046
1374.00,0.0070
1361.00,0.0066
1348.00,0.0059
1335.00,0.0054
1322.00,0.0057
1309.00,0.0058
1296.00,0.0049
1283.00,0.0045
1270.00,0.0036
1257.00,0.0032
1244.00,0.0034
1231.00,0.0034
1218.00,0.0034
1205.00,0.0041
1192.00,0.0053
1179.00,0.0067
1166.00,0.0042
1153.00,0.0070
1140.00,0.0031
1127.00,0.0030
1114.00,0.0038
1101.00,0.0041
1088.00,0.0050
1075.00,0.0082
1062.00,0.0080
1049.00,0.0053
1036.00,0.0076
1023.00,0.0117
1010.00,0.0067
997.00,0.0054
984.00,0.0062
971.00,0.0061
958.00,0.0057
945.00,0.0054
932.00,0.0040
919.00,0.0047
906.00,0.0104
893.00,0.0041
880.00,0.0028
867.00,0.0024
854.00,0.0027
841.00,0.0053
828.00,0.0024
815.00,0.0021
802.00,0.0024
789.00,0.0049
776.00,0.0131
763.00,0.0324
750.00,0.0410
737.00,0.0192
724.00,0.0050
711.00,0.0127
698.00,0.0899
685.00,0.0356
672.00,0.0170
659.00,0.0107
646.00,0.0073
633.00,0.0079
620.00,0.0092
607.00,0.0073
594.00,0.0081
581.00,0.0104
568.00,0.0165
555.00,0.0230
542.00,0.0357
529.00,0.0259
516.00,0.0139
503.00,0.0099
490.00,0.0074
477.00,0.0072
464.00,0.0067
451.00,0.0063
438.00,0.0052
425.00,0.0042
412.00,0.0054
400.00,0.0047