Folder: Data/FTIR/Olivia (part 14)

File: 2025_08_01_1CBN_3PVP29_mortar_dry_scan2.csv
Created as New Dataset,Sample 1021 By YargerLab Date Friday, August 01 2025
cm-1,A
4000.00,0.0065
3987.00,0.0065
3974.00,0.0066
3961.00,0.0065
3948.00,0.0065
3935.00,0.0064
3922.00,0.0065
3909.00,0.0065
3896.00,0.0064
3883.00,0.0064
3870.00,0.0064
3857.00,0.0065
3844.00,0.0064
3831.00,0.0063
3818.00,0.0063
3805.00,0.0063
3792.00,0.0063
3779.00,0.0063
3766.00,0.0064
3753.00,0.0064
3740.00,0.0063
3727.00,0.0062
3714.00,0.0062
3701.00,0.0061
3688.00,0.0061
3675.00,0.0063
3662.00,0.0064
3649.00,0.0067
3636.00,0.0070
3623.00,0.0073
3610.00,0.0079
3597.00,0.0085
3584.00,0.0091
3571.00,0.0099
3558.00,0.0108
3545.00,0.0118
3532.00,0.0128
3519.00,0.0138
3506.00,0.0148
3493.00,0.0159
3480.00,0.0174
3467.00,0.0192
3454.00,0.0213
3441.00,0.0237
3428.00,0.0270
3415.00,0.0307
3402.00,0.0332
3389.00,0.0326
3376.00,0.0303
3363.00,0.0279
3350.00,0.0263
3337.00,0.0253
3324.00,0.0251
3311.00,0.0255
3298.00,0.0265
3285.00,0.0277
3272.00,0.0288
3259.00,0.0300
3246.00,0.0308
3233.00,0.0309
3220.00,0.0304
3207.00,0.0287
3194.00,0.0264
3181.00,0.0240
3168.00,0.0216
3155.00,0.0191
3142.00,0.0171
3129.00,0.0154
3116.00,0.0142
3103.00,0.0129
3090.00,0.0125
3077.00,0.0123
3064.00,0.0118
3051.00,0.0119
3038.00,0.0121
3025.00,0.0119
3012.00,0.0112
2999.00,0.0143
2986.00,0.0199
2973.00,0.0291
2960.00,0.0381
2947.00,0.0295
2934.00,0.0454
2921.00,0.0530
2908.00,0.0349
2895.00,0.0266
2882.00,0.0233
2869.00,0.0287
2856.00,0.0413
2843.00,0.0245
2830.00,0.0155
2817.00,0.0126
2804.00,0.0115
2791.00,0.0106
2778.00,0.0099
2765.00,0.0097
2752.00,0.0097
2739.00,0.0100
2726.00,0.0103
2713.00,0.0098
2700.00,0.0096
2687.00,0.0093
2674.00,0.0092
2661.00,0.0098
2648.00,0.0099
2635.00,0.0096
2622.00,0.0091
2609.00,0.0090
2596.00,0.0092
2583.00,0.0093
2570.00,0.0089
2557.00,0.0087
2544.00,0.0086
2531.00,0.0085
2518.00,0.0083
2505.00,0.0080
2492.00,0.0078
2479.00,0.0078
2466.00,0.0077
2453.00,0.0078
2440.00,0.0076
2427.00,0.0074
2414.00,0.0074
2401.00,0.0073
2388.00,0.0072
2375.00,0.0069
2362.00,0.0069
2349.00,0.0071
2336.00,0.0072
2323.00,0.0082
2310.00,0.0074
2297.00,0.0078
2284.00,0.0083
2271.00,0.0076
2258.00,0.0072
2245.00,0.0070
2232.00,0.0074
2219.00,0.0072
2206.00,0.0075
2193.00,0.0074
2180.00,0.0073
2167.00,0.0079
2154.00,0.0049
2141.00,0.0055
2128.00,0.0057
2115.00,0.0066
2102.00,0.0064
2089.00,0.0065
2076.00,0.0066
2063.00,0.0064
2050.00,0.0066
2037.00,0.0064
2024.00,0.0059
2011.00,0.0055
1998.00,0.0054
1985.00,0.0063
1972.00,0.0050
1959.00,0.0048
1946.00,0.0053
1933.00,0.0055
1920.00,0.0060
1907.00,0.0075
1894.00,0.0066
1881.00,0.0060
1868.00,0.0061
1855.00,0.0063
1842.00,0.0066
1829.00,0.0061
1816.00,0.0060
1803.00,0.0063
1790.00,0.0066
1777.00,0.0068
1764.00,0.0070
1751.00,0.0069
1738.00,0.0070
1725.00,0.0086
1712.00,0.0108
1699.00,0.0139
1686.00,0.0213
1673.00,0.0376
1660.00,0.0549
1647.00,0.0649
1634.00,0.0621
1621.00,0.0930
1608.00,0.0655
1595.00,0.0349
1582.00,0.0604
1569.00,0.0367
1556.00,0.0192
1543.00,0.0157
1530.00,0.0145
1517.00,0.0177
1504.00,0.0242
1491.00,0.0375
1478.00,0.0205
1465.00,0.0527
1452.00,0.0451
1439.00,0.0668
1426.00,0.0790
1413.00,0.0542
1400.00,0.0713
1387.00,0.0502
1374.00,0.0430
1361.00,0.0569
1348.00,0.0445
1335.00,0.0341
1322.00,0.0395
1309.00,0.0369
1296.00,0.0652
1283.00,0.0811
1270.00,0.0569
1257.00,0.0376
1244.00,0.0463
1231.00,0.0636
1218.00,0.0488
1205.00,0.0392
1192.00,0.0635
1179.00,0.0314
1166.00,0.0299
1153.00,0.0620
1140.00,0.0274
1127.00,0.0754
1114.00,0.0374
1101.00,0.0489
1088.00,0.0259
1075.00,0.0259
1062.00,0.0413
1049.00,0.0983
1036.00,0.0504
1023.00,0.0716
1010.00,0.0340
997.00,0.0421
984.00,0.0264
971.00,0.0239
958.00,0.0218
945.00,0.0200
932.00,0.0278
919.00,0.0278
906.00,0.0199
893.00,0.0271
880.00,0.0235
867.00,0.0591
854.00,0.0449
841.00,0.0425
828.00,0.0433
815.00,0.0761
802.00,0.0259
789.00,0.0244
776.00,0.0300
763.00,0.0298
750.00,0.0332
737.00,0.0518
724.00,0.0471
711.00,0.0466
698.00,0.0495
685.00,0.0533
672.00,0.0622
659.00,0.0650
646.00,0.0616
633.00,0.0581
620.00,0.0648
607.00,0.0639
594.00,0.0769
581.00,0.0770
568.00,0.0738
555.00,0.0781
542.00,0.0819
529.00,0.0815
516.00,0.0657
503.00,0.0664
490.00,0.0661
477.00,0.0616
464.00,0.0597
451.00,0.0573
438.00,0.0559
425.00,0.0521
412.00,0.0534
400.00,0.0508

File: 2025_08_01_1CBN_3PVP29_mortar_dry_scan3.csv
Created as New Dataset,Sample 1022 By YargerLab Date Friday, August 01 2025
cm-1,A
4000.00,0.0055
3987.00,0.0054
3974.00,0.0055
3961.00,0.0055
3948.00,0.0054
3935.00,0.0054
3922.00,0.0054
3909.00,0.0054
3896.00,0.0054
3883.00,0.0053
3870.00,0.0053
3857.00,0.0055
3844.00,0.0053
3831.00,0.0053
3818.00,0.0053
3805.00,0.0054
3792.00,0.0053
3779.00,0.0053
3766.00,0.0053
3753.00,0.0054
3740.00,0.0053
3727.00,0.0051
3714.00,0.0051
3701.00,0.0050
3688.00,0.0050
3675.00,0.0050
3662.00,0.0049
3649.00,0.0050
3636.00,0.0050
3623.00,0.0051
3610.00,0.0052
3597.00,0.0053
3584.00,0.0053
3571.00,0.0056
3558.00,0.0058
3545.00,0.0062
3532.00,0.0066
3519.00,0.0071
3506.00,0.0077
3493.00,0.0083
3480.00,0.0094
3467.00,0.0108
3454.00,0.0124
3441.00,0.0143
3428.00,0.0170
3415.00,0.0202
3402.00,0.0220
3389.00,0.0214
3376.00,0.0194
3363.00,0.0178
3350.00,0.0167
3337.00,0.0162
3324.00,0.0163
3311.00,0.0169
3298.00,0.0178
3285.00,0.0189
3272.00,0.0201
3259.00,0.0212
3246.00,0.0221
3233.00,0.0224
3220.00,0.0219
3207.00,0.0206
3194.00,0.0189
3181.00,0.0171
3168.00,0.0152
3155.00,0.0134
3142.00,0.0119
3129.00,0.0108
3116.00,0.0100
3103.00,0.0090
3090.00,0.0088
3077.00,0.0088
3064.00,0.0085
3051.00,0.0087
3038.00,0.0089
3025.00,0.0087
3012.00,0.0079
2999.00,0.0096
2986.00,0.0135
2973.00,0.0197
2960.00,0.0267
2947.00,0.0197
2934.00,0.0321
2921.00,0.0384
2908.00,0.0245
2895.00,0.0179
2882.00,0.0153
2869.00,0.0200
2856.00,0.0302
2843.00,0.0177
2830.00,0.0110
2817.00,0.0091
2804.00,0.0083
2791.00,0.0077
2778.00,0.0073
2765.00,0.0071
2752.00,0.0071
2739.00,0.0073
2726.00,0.0077
2713.00,0.0073
2700.00,0.0072
2687.00,0.0070
2674.00,0.0069
2661.00,0.0073
2648.00,0.0074
2635.00,0.0072
2622.00,0.0068
2609.00,0.0067
2596.00,0.0069
2583.00,0.0069
2570.00,0.0068
2557.00,0.0066
2544.00,0.0064
2531.00,0.0065
2518.00,0.0062
2505.00,0.0060
2492.00,0.0058
2479.00,0.0058
2466.00,0.0058
2453.00,0.0058
2440.00,0.0057
2427.00,0.0055
2414.00,0.0054
2401.00,0.0054
2388.00,0.0053
2375.00,0.0051
2362.00,0.0050
2349.00,0.0052
2336.00,0.0053
2323.00,0.0061
2310.00,0.0054
2297.00,0.0057
2284.00,0.0062
2271.00,0.0057
2258.00,0.0051
2245.00,0.0052
2232.00,0.0054
2219.00,0.0053
2206.00,0.0054
2193.00,0.0053
2180.00,0.0050
2167.00,0.0059
2154.00,0.0033
2141.00,0.0035
2128.00,0.0039
2115.00,0.0046
2102.00,0.0045
2089.00,0.0043
2076.00,0.0048
2063.00,0.0045
2050.00,0.0051
2037.00,0.0046
2024.00,0.0040
2011.00,0.0041
1998.00,0.0036
1985.00,0.0046
1972.00,0.0033
1959.00,0.0032
1946.00,0.0037
1933.00,0.0039
1920.00,0.0043
1907.00,0.0055
1894.00,0.0047
1881.00,0.0043
1868.00,0.0043
1855.00,0.0045
1842.00,0.0048
1829.00,0.0043
1816.00,0.0043
1803.00,0.0044
1790.00,0.0047
1777.00,0.0048
1764.00,0.0048
1751.00,0.0045
1738.00,0.0044
1725.00,0.0053
1712.00,0.0062
1699.00,0.0057
1686.00,0.0040
1673.00,0.0061
1660.00,0.0119
1647.00,0.0182
1634.00,0.0218
1621.00,0.0545
1608.00,0.0393
1595.00,0.0197
1582.00,0.0420
1569.00,0.0246
1556.00,0.0117
1543.00,0.0094
1530.00,0.0088
1517.00,0.0110
1504.00,0.0148
1491.00,0.0225
1478.00,0.0120
1465.00,0.0289
1452.00,0.0255
1439.00,0.0360
1426.00,0.0427
1413.00,0.0307
1400.00,0.0502
1387.00,0.0337
1374.00,0.0258
1361.00,0.0384
1348.00,0.0301
1335.00,0.0217
1322.00,0.0229
1309.00,0.0211
1296.00,0.0354
1283.00,0.0397
1270.00,0.0232
1257.00,0.0168
1244.00,0.0264
1231.00,0.0386
1218.00,0.0272
1205.00,0.0217
1192.00,0.0418
1179.00,0.0171
1166.00,0.0155
1153.00,0.0428
1140.00,0.0162
1127.00,0.0531
1114.00,0.0235
1101.00,0.0319
1088.00,0.0146
1075.00,0.0141
1062.00,0.0259
1049.00,0.0703
1036.00,0.0332
1023.00,0.0492
1010.00,0.0202
997.00,0.0266
984.00,0.0156
971.00,0.0143
958.00,0.0128
945.00,0.0114
932.00,0.0165
919.00,0.0175
906.00,0.0110
893.00,0.0161
880.00,0.0138
867.00,0.0414
854.00,0.0281
841.00,0.0249
828.00,0.0273
815.00,0.0515
802.00,0.0134
789.00,0.0119
776.00,0.0157
763.00,0.0144
750.00,0.0152
737.00,0.0269
724.00,0.0239
711.00,0.0237
698.00,0.0252
685.00,0.0268
672.00,0.0320
659.00,0.0314
646.00,0.0259
633.00,0.0249
620.00,0.0303
607.00,0.0293
594.00,0.0376
581.00,0.0356
568.00,0.0316
555.00,0.0360
542.00,0.0390
529.00,0.0389
516.00,0.0269
503.00,0.0278
490.00,0.0274
477.00,0.0232
464.00,0.0215
451.00,0.0213
438.00,0.0210
425.00,0.0182
412.00,0.0211
400.00,0.0166

File: 2025_08_01_1CBN_3PVP40_mortar_dry_scan1.csv
Created as New Dataset,Sample 1023 By YargerLab Date Friday, August 01 2025
cm-1,A
4000.00,0.0076
3987.00,0.0076
3974.00,0.0076
3961.00,0.0076
3948.00,0.0076
3935.00,0.0076
3922.00,0.0076
3909.00,0.0076
3896.00,0.0076
3883.00,0.0076
3870.00,0.0076
3857.00,0.0077
3844.00,0.0075
3831.00,0.0076
3818.00,0.0075
3805.00,0.0076
3792.00,0.0075
3779.00,0.0074
3766.00,0.0074
3753.00,0.0076
3740.00,0.0075
3727.00,0.0074
3714.00,0.0076
3701.00,0.0073
3688.00,0.0076
3675.00,0.0079
3662.00,0.0081
3649.00,0.0086
3636.00,0.0091
3623.00,0.0098
3610.00,0.0108
3597.00,0.0115
3584.00,0.0128
3571.00,0.0140
3558.00,0.0154
3545.00,0.0168
3532.00,0.0180
3519.00,0.0193
3506.00,0.0203
3493.00,0.0213
3480.00,0.0225
3467.00,0.0237
3454.00,0.0250
3441.00,0.0264
3428.00,0.0283
3415.00,0.0302
3402.00,0.0314
3389.00,0.0310
3376.00,0.0296
3363.00,0.0282
3350.00,0.0271
3337.00,0.0263
3324.00,0.0260
3311.00,0.0261
3298.00,0.0264
3285.00,0.0269
3272.00,0.0273
3259.00,0.0276
3246.00,0.0275
3233.00,0.0271
3220.00,0.0264
3207.00,0.0251
3194.00,0.0235
3181.00,0.0218
3168.00,0.0201
3155.00,0.0185
3142.00,0.0171
3129.00,0.0159
3116.00,0.0150
3103.00,0.0141
3090.00,0.0135
3077.00,0.0132
3064.00,0.0127
3051.00,0.0126
3038.00,0.0125
3025.00,0.0123
3012.00,0.0121
2999.00,0.0145
2986.00,0.0185
2973.00,0.0241
2960.00,0.0301
2947.00,0.0257
2934.00,0.0332
2921.00,0.0377
2908.00,0.0278
2895.00,0.0235
2882.00,0.0217
2869.00,0.0238
2856.00,0.0298
2843.00,0.0201
2830.00,0.0149
2817.00,0.0130
2804.00,0.0122
2791.00,0.0116
2778.00,0.0111
2765.00,0.0109
2752.00,0.0108
2739.00,0.0109
2726.00,0.0111
2713.00,0.0108
2700.00,0.0106
2687.00,0.0104
2674.00,0.0103
2661.00,0.0107
2648.00,0.0108
2635.00,0.0106
2622.00,0.0102
2609.00,0.0102
2596.00,0.0102
2583.00,0.0102
2570.00,0.0099
2557.00,0.0099
2544.00,0.0097
2531.00,0.0097
2518.00,0.0094
2505.00,0.0094
2492.00,0.0093
2479.00,0.0092
2466.00,0.0092
2453.00,0.0093
2440.00,0.0091
2427.00,0.0091
2414.00,0.0090
2401.00,0.0090
2388.00,0.0088
2375.00,0.0083
2362.00,0.0084
2349.00,0.0085
2336.00,0.0089
2323.00,0.0098
2310.00,0.0090
2297.00,0.0093
2284.00,0.0100
2271.00,0.0095
2258.00,0.0094
2245.00,0.0093
2232.00,0.0092
2219.00,0.0092
2206.00,0.0094
2193.00,0.0096
2180.00,0.0091
2167.00,0.0101
2154.00,0.0068
2141.00,0.0080
2128.00,0.0080
2115.00,0.0092
2102.00,0.0088
2089.00,0.0088
2076.00,0.0090
2063.00,0.0085
2050.00,0.0091
2037.00,0.0082
2024.00,0.0077
2011.00,0.0076
1998.00,0.0078
1985.00,0.0085
1972.00,0.0073
1959.00,0.0067
1946.00,0.0076
1933.00,0.0075
1920.00,0.0076
1907.00,0.0085
1894.00,0.0081
1881.00,0.0078
1868.00,0.0077
1855.00,0.0079
1842.00,0.0079
1829.00,0.0077
1816.00,0.0077
1803.00,0.0080
1790.00,0.0080
1777.00,0.0083
1764.00,0.0084
1751.00,0.0086
1738.00,0.0090
1725.00,0.0103
1712.00,0.0121
1699.00,0.0166
1686.00,0.0322
1673.00,0.0562
1660.00,0.0789
1647.00,0.0882
1634.00,0.0788
1621.00,0.0801
1608.00,0.0565
1595.00,0.0347
1582.00,0.0435
1569.00,0.0300
1556.00,0.0198
1543.00,0.0178
1530.00,0.0165
1517.00,0.0174
1504.00,0.0232
1491.00,0.0339
1478.00,0.0209
1465.00,0.0496
1452.00,0.0415
1439.00,0.0627
1426.00,0.0706
1413.00,0.0477
1400.00,0.0481
1387.00,0.0375
1374.00,0.0368
1361.00,0.0407
1348.00,0.0335
1335.00,0.0289
1322.00,0.0368
1309.00,0.0341
1296.00,0.0609
1283.00,0.0789
1270.00,0.0645
1257.00,0.0418
1244.00,0.0423
1231.00,0.0523
1218.00,0.0454
1205.00,0.0379
1192.00,0.0480
1179.00,0.0323
1166.00,0.0320
1153.00,0.0450
1140.00,0.0268
1127.00,0.0502
1114.00,0.0323
1101.00,0.0384
1088.00,0.0273
1075.00,0.0275
1062.00,0.0339
1049.00,0.0615
1036.00,0.0385
1023.00,0.0517
1010.00,0.0315
997.00,0.0354
984.00,0.0262
971.00,0.0244
958.00,0.0232
945.00,0.0221
932.00,0.0269
919.00,0.0256
906.00,0.0220
893.00,0.0266
880.00,0.0238
867.00,0.0409
854.00,0.0364
841.00,0.0380
828.00,0.0373
815.00,0.0523
802.00,0.0290
789.00,0.0288
776.00,0.0326
763.00,0.0343
750.00,0.0390
737.00,0.0504
724.00,0.0482
711.00,0.0476
698.00,0.0500
685.00,0.0534
672.00,0.0599
659.00,0.0655
646.00,0.0682
633.00,0.0648
620.00,0.0672
607.00,0.0668
594.00,0.0738
581.00,0.0778
568.00,0.0788
555.00,0.0795
542.00,0.0802
529.00,0.0810
516.00,0.0741
503.00,0.0747
490.00,0.0753
477.00,0.0733
464.00,0.0717
451.00,0.0700
438.00,0.0668
425.00,0.0632
412.00,0.0621
400.00,0.0589

File: 2025_08_01_1CBN_3PVP40_mortar_dry_scan2.csv
Created as New Dataset,Sample 1024 By YargerLab Date Friday, August 01 2025
cm-1,A
4000.00,0.0108
3987.00,0.0108
3974.00,0.0109
3961.00,0.0108
3948.00,0.0108
3935.00,0.0107
3922.00,0.0107
3909.00,0.0108
3896.00,0.0107
3883.00,0.0106
3870.00,0.0106
3857.00,0.0106
3844.00,0.0107
3831.00,0.0107
3818.00,0.0106
3805.00,0.0106
3792.00,0.0107
3779.00,0.0107
3766.00,0.0106
3753.00,0.0106
3740.00,0.0106
3727.00,0.0106
3714.00,0.0106
3701.00,0.0105
3688.00,0.0107
3675.00,0.0111
3662.00,0.0115
3649.00,0.0122
3636.00,0.0129
3623.00,0.0138
3610.00,0.0151
3597.00,0.0164
3584.00,0.0182
3571.00,0.0199
3558.00,0.0220
3545.00,0.0241
3532.00,0.0258
3519.00,0.0277
3506.00,0.0292
3493.00,0.0308
3480.00,0.0328
3467.00,0.0349
3454.00,0.0373
3441.00,0.0399
3428.00,0.0432
3415.00,0.0469
3402.00,0.0491
3389.00,0.0482
3376.00,0.0455
3363.00,0.0430
3350.00,0.0409
3337.00,0.0398
3324.00,0.0394
3311.00,0.0395
3298.00,0.0404
3285.00,0.0416
3272.00,0.0421
3259.00,0.0431
3246.00,0.0433
3233.00,0.0428
3220.00,0.0418
3207.00,0.0395
3194.00,0.0367
3181.00,0.0338
3168.00,0.0309
3155.00,0.0281
3142.00,0.0256
3129.00,0.0236
3116.00,0.0221
3103.00,0.0205
3090.00,0.0199
3077.00,0.0194
3064.00,0.0188
3051.00,0.0186
3038.00,0.0187
3025.00,0.0184
3012.00,0.0180
2999.00,0.0226
2986.00,0.0301
2973.00,0.0411
2960.00,0.0519
2947.00,0.0434
2934.00,0.0601
2921.00,0.0676
2908.00,0.0472
2895.00,0.0387
2882.00,0.0354
2869.00,0.0398
2856.00,0.0525
2843.00,0.0328
2830.00,0.0231
2817.00,0.0196
2804.00,0.0181
2791.00,0.0170
2778.00,0.0162
2765.00,0.0158
2752.00,0.0157
2739.00,0.0160
2726.00,0.0163
2713.00,0.0157
2700.00,0.0155
2687.00,0.0150
2674.00,0.0149
2661.00,0.0155
2648.00,0.0156
2635.00,0.0153
2622.00,0.0147
2609.00,0.0146
2596.00,0.0148
2583.00,0.0149
2570.00,0.0146
2557.00,0.0143
2544.00,0.0141
2531.00,0.0139
2518.00,0.0136
2505.00,0.0134
2492.00,0.0132
2479.00,0.0131
2466.00,0.0131
2453.00,0.0132
2440.00,0.0129
2427.00,0.0129
2414.00,0.0128
2401.00,0.0128
2388.00,0.0126
2375.00,0.0122
2362.00,0.0123
2349.00,0.0125
2336.00,0.0128
2323.00,0.0138
2310.00,0.0129
2297.00,0.0132
2284.00,0.0139
2271.00,0.0132
2258.00,0.0128
2245.00,0.0127
2232.00,0.0127
2219.00,0.0127
2206.00,0.0128
2193.00,0.0128
2180.00,0.0127
2167.00,0.0136
2154.00,0.0102
2141.00,0.0112
2128.00,0.0113
2115.00,0.0125
2102.00,0.0122
2089.00,0.0120
2076.00,0.0122
2063.00,0.0118
2050.00,0.0119
2037.00,0.0114
2024.00,0.0108
2011.00,0.0104
1998.00,0.0107
1985.00,0.0113
1972.00,0.0098
1959.00,0.0097
1946.00,0.0105
1933.00,0.0104
1920.00,0.0110
1907.00,0.0123
1894.00,0.0118
1881.00,0.0111
1868.00,0.0114
1855.00,0.0113
1842.00,0.0112
1829.00,0.0112
1816.00,0.0110
1803.00,0.0116
1790.00,0.0115
1777.00,0.0122
1764.00,0.0122
1751.00,0.0130
1738.00,0.0133
1725.00,0.0157
1712.00,0.0193
1699.00,0.0276
1686.00,0.0547
1673.00,0.0939
1660.00,0.1295
1647.00,0.1426
1634.00,0.1235
1621.00,0.1371
1608.00,0.0937
1595.00,0.0541
1582.00,0.0752
1569.00,0.0490
1556.00,0.0295
1543.00,0.0263
1530.00,0.0239
1517.00,0.0272
1504.00,0.0366
1491.00,0.0548
1478.00,0.0320
1465.00,0.0819
1452.00,0.0685
1439.00,0.1043
1426.00,0.1225
1413.00,0.0809
1400.00,0.0862
1387.00,0.0644
1374.00,0.0611
1361.00,0.0719
1348.00,0.0562
1335.00,0.0468
1322.00,0.0589
1309.00,0.0552
1296.00,0.1009
1283.00,0.1333
1270.00,0.1044
1257.00,0.0655
1244.00,0.0689
1231.00,0.0878
1218.00,0.0729
1205.00,0.0588
1192.00,0.0802
1179.00,0.0484
1166.00,0.0477
1153.00,0.0747
1140.00,0.0393
1127.00,0.0857
1114.00,0.0488
1101.00,0.0613
1088.00,0.0386
1075.00,0.0392
1062.00,0.0534
1049.00,0.1092
1036.00,0.0620
1023.00,0.0860
1010.00,0.0468
997.00,0.0538
984.00,0.0368
971.00,0.0339
958.00,0.0317
945.00,0.0299
932.00,0.0389
919.00,0.0370
906.00,0.0303
893.00,0.0387
880.00,0.0340
867.00,0.0678
854.00,0.0583
841.00,0.0593
828.00,0.0579
815.00,0.0894
802.00,0.0406
789.00,0.0399
776.00,0.0469
763.00,0.0492
750.00,0.0565
737.00,0.0785
724.00,0.0726
711.00,0.0718
698.00,0.0766
685.00,0.0824
672.00,0.0952
659.00,0.1043
646.00,0.1067
633.00,0.1002
620.00,0.1058
607.00,0.1054
594.00,0.1200
581.00,0.1255
568.00,0.1256
555.00,0.1265
542.00,0.1287
529.00,0.1284
516.00,0.1122
503.00,0.1122
490.00,0.1123
477.00,0.1079
464.00,0.1052
451.00,0.1020
438.00,0.0982
425.00,0.0940
412.00,0.0958
400.00,0.0876

File: 2025_08_01_1CBN_3PVP40_mortar_dry_scan3.csv
Created as New Dataset,Sample 1025 By YargerLab Date Friday, August 01 2025
cm-1,A
4000.00,0.0072
3987.00,0.0072
3974.00,0.0073
3961.00,0.0072
3948.00,0.0072
3935.00,0.0071
3922.00,0.0072
3909.00,0.0071
3896.00,0.0071
3883.00,0.0071
3870.00,0.0070
3857.00,0.0070
3844.00,0.0071
3831.00,0.0070
3818.00,0.0069
3805.00,0.0070
3792.00,0.0070
3779.00,0.0070
3766.00,0.0069
3753.00,0.0070
3740.00,0.0069
3727.00,0.0069
3714.00,0.0069
3701.00,0.0068
3688.00,0.0069
3675.00,0.0069
3662.00,0.0072
3649.00,0.0073
3636.00,0.0076
3623.00,0.0080
3610.00,0.0086
3597.00,0.0090
3584.00,0.0097
3571.00,0.0105
3558.00,0.0114
3545.00,0.0123
3532.00,0.0132
3519.00,0.0143
3506.00,0.0152
3493.00,0.0162
3480.00,0.0177
3467.00,0.0196
3454.00,0.0216
3441.00,0.0240
3428.00,0.0272
3415.00,0.0308
3402.00,0.0330
3389.00,0.0321
3376.00,0.0298
3363.00,0.0277
3350.00,0.0262
3337.00,0.0255
3324.00,0.0255
3311.00,0.0260
3298.00,0.0270
3285.00,0.0283
3272.00,0.0295
3259.00,0.0307
3246.00,0.0315
3233.00,0.0317
3220.00,0.0310
3207.00,0.0293
3194.00,0.0270
3181.00,0.0246
3168.00,0.0221
3155.00,0.0197
3142.00,0.0178
3129.00,0.0162
3116.00,0.0151
3103.00,0.0137
3090.00,0.0135
3077.00,0.0133
3064.00,0.0128
3051.00,0.0129
3038.00,0.0131
3025.00,0.0129
3012.00,0.0122
2999.00,0.0153
2986.00,0.0213
2973.00,0.0306
2960.00,0.0401
2947.00,0.0315
2934.00,0.0479
2921.00,0.0548
2908.00,0.0359
2895.00,0.0276
2882.00,0.0245
2869.00,0.0297
2856.00,0.0424
2843.00,0.0247
2830.00,0.0161
2817.00,0.0133
2804.00,0.0122
2791.00,0.0113
2778.00,0.0107
2765.00,0.0104
2752.00,0.0105
2739.00,0.0108
2726.00,0.0111
2713.00,0.0106
2700.00,0.0104
2687.00,0.0101
2674.00,0.0100
2661.00,0.0105
2648.00,0.0106
2635.00,0.0103
2622.00,0.0097
2609.00,0.0097
2596.00,0.0098
2583.00,0.0099
2570.00,0.0096
2557.00,0.0094
2544.00,0.0092
2531.00,0.0092
2518.00,0.0089
2505.00,0.0087
2492.00,0.0085
2479.00,0.0084
2466.00,0.0083
2453.00,0.0085
2440.00,0.0082
2427.00,0.0080
2414.00,0.0080
2401.00,0.0080
2388.00,0.0078
2375.00,0.0074
2362.00,0.0074
2349.00,0.0075
2336.00,0.0078
2323.00,0.0086
2310.00,0.0078
2297.00,0.0082
2284.00,0.0087
2271.00,0.0081
2258.00,0.0078
2245.00,0.0077
2232.00,0.0079
2219.00,0.0078
2206.00,0.0080
2193.00,0.0077
2180.00,0.0076
2167.00,0.0083
2154.00,0.0056
2141.00,0.0061
2128.00,0.0064
2115.00,0.0075
2102.00,0.0072
2089.00,0.0071
2076.00,0.0073
2063.00,0.0069
2050.00,0.0073
2037.00,0.0070
2024.00,0.0064
2011.00,0.0059
1998.00,0.0063
1985.00,0.0068
1972.00,0.0057
1959.00,0.0054
1946.00,0.0062
1933.00,0.0061
1920.00,0.0065
1907.00,0.0080
1894.00,0.0073
1881.00,0.0067
1868.00,0.0066
1855.00,0.0069
1842.00,0.0069
1829.00,0.0066
1816.00,0.0067
1803.00,0.0070
1790.00,0.0070
1777.00,0.0074
1764.00,0.0074
1751.00,0.0076
1738.00,0.0077
1725.00,0.0094
1712.00,0.0111
1699.00,0.0145
1686.00,0.0260
1673.00,0.0418
1660.00,0.0558
1647.00,0.0594
1634.00,0.0545
1621.00,0.0853
1608.00,0.0600
1595.00,0.0327
1582.00,0.0569
1569.00,0.0346
1556.00,0.0182
1543.00,0.0155
1530.00,0.0143
1517.00,0.0170
1504.00,0.0231
1491.00,0.0344
1478.00,0.0196
1465.00,0.0488
1452.00,0.0420
1439.00,0.0617
1426.00,0.0724
1413.00,0.0506
1400.00,0.0670
1387.00,0.0466
1374.00,0.0394
1361.00,0.0534
1348.00,0.0412
1335.00,0.0318
1322.00,0.0363
1309.00,0.0343
1296.00,0.0596
1283.00,0.0740
1270.00,0.0529
1257.00,0.0353
1244.00,0.0441
1231.00,0.0582
1218.00,0.0456
1205.00,0.0368
1192.00,0.0588
1179.00,0.0297
1166.00,0.0286
1153.00,0.0577
1140.00,0.0258
1127.00,0.0682
1114.00,0.0338
1101.00,0.0450
1088.00,0.0243
1075.00,0.0243
1062.00,0.0384
1049.00,0.0895
1036.00,0.0456
1023.00,0.0659
1010.00,0.0313
997.00,0.0375
984.00,0.0241
971.00,0.0222
958.00,0.0206
945.00,0.0189
932.00,0.0254
919.00,0.0250
906.00,0.0187
893.00,0.0249
880.00,0.0218
867.00,0.0506
854.00,0.0390
841.00,0.0376
828.00,0.0387
815.00,0.0652
802.00,0.0235
789.00,0.0223
776.00,0.0270
763.00,0.0269
750.00,0.0300
737.00,0.0450
724.00,0.0406
711.00,0.0399
698.00,0.0430
685.00,0.0453
672.00,0.0531
659.00,0.0558
646.00,0.0535
633.00,0.0505
620.00,0.0554
607.00,0.0549
594.00,0.0642
581.00,0.0654
568.00,0.0634
555.00,0.0661
542.00,0.0684
529.00,0.0688
516.00,0.0574
503.00,0.0581
490.00,0.0582
477.00,0.0549
464.00,0.0530
451.00,0.0527
438.00,0.0502
425.00,0.0467
412.00,0.0474
400.00,0.0462

File: 2025_08_01_1CBN_3PVP90_mortar_dry_scan1.csv
Created as New Dataset,Sample 1026 By YargerLab Date Friday, August 01 2025
cm-1,A
4000.00,0.0043
3987.00,0.0043
3974.00,0.0043
3961.00,0.0043
3948.00,0.0043
3935.00,0.0043
3922.00,0.0042
3909.00,0.0042
3896.00,0.0043
3883.00,0.0043
3870.00,0.0042
3857.00,0.0042
3844.00,0.0043
3831.00,0.0043
3818.00,0.0043
3805.00,0.0042
3792.00,0.0042
3779.00,0.0042
3766.00,0.0043
3753.00,0.0043
3740.00,0.0042
3727.00,0.0041
3714.00,0.0040
3701.00,0.0039
3688.00,0.0041
3675.00,0.0042
3662.00,0.0044
3649.00,0.0045
3636.00,0.0048
3623.00,0.0050
3610.00,0.0056
3597.00,0.0059
3584.00,0.0063
3571.00,0.0069
3558.00,0.0076
3545.00,0.0083
3532.00,0.0090
3519.00,0.0098
3506.00,0.0105
3493.00,0.0113
3480.00,0.0124
3467.00,0.0138
3454.00,0.0153
3441.00,0.0171
3428.00,0.0194
3415.00,0.0222
3402.00,0.0240
3389.00,0.0236
3376.00,0.0221
3363.00,0.0205
3350.00,0.0192
3337.00,0.0187
3324.00,0.0186
3311.00,0.0189
3298.00,0.0196
3285.00,0.0206
3272.00,0.0215
3259.00,0.0226
3246.00,0.0235
3233.00,0.0237
3220.00,0.0235
3207.00,0.0224
3194.00,0.0208
3181.00,0.0191
3168.00,0.0173
3155.00,0.0152
3142.00,0.0137
3129.00,0.0124
3116.00,0.0114
3103.00,0.0102
3090.00,0.0100
3077.00,0.0097
3064.00,0.0093
3051.00,0.0094
3038.00,0.0095
3025.00,0.0092
3012.00,0.0088
2999.00,0.0117
2986.00,0.0163
2973.00,0.0240
2960.00,0.0310
2947.00,0.0246
2934.00,0.0390
2921.00,0.0443
2908.00,0.0287
2895.00,0.0218
2882.00,0.0192
2869.00,0.0232
2856.00,0.0345
2843.00,0.0192
2830.00,0.0120
2817.00,0.0097
2804.00,0.0088
2791.00,0.0079
2778.00,0.0074
2765.00,0.0072
2752.00,0.0072
2739.00,0.0074
2726.00,0.0078
2713.00,0.0074
2700.00,0.0071
2687.00,0.0069
2674.00,0.0068
2661.00,0.0073
2648.00,0.0075
2635.00,0.0072
2622.00,0.0068
2609.00,0.0067
2596.00,0.0069
2583.00,0.0068
2570.00,0.0066
2557.00,0.0063
2544.00,0.0062
2531.00,0.0060
2518.00,0.0058
2505.00,0.0057
2492.00,0.0056
2479.00,0.0054
2466.00,0.0053
2453.00,0.0055
2440.00,0.0052
2427.00,0.0051
2414.00,0.0050
2401.00,0.0050
2388.00,0.0048
2375.00,0.0042
2362.00,0.0041
2349.00,0.0042
2336.00,0.0046
2323.00,0.0058
2310.00,0.0048
2297.00,0.0053
2284.00,0.0060
2271.00,0.0054
2258.00,0.0048
2245.00,0.0048
2232.00,0.0048
2219.00,0.0049
2206.00,0.0049
2193.00,0.0051
2180.00,0.0047
2167.00,0.0059
2154.00,0.0023
2141.00,0.0035
2128.00,0.0035
2115.00,0.0045
2102.00,0.0042
2089.00,0.0042
2076.00,0.0046
2063.00,0.0042
2050.00,0.0043
2037.00,0.0039
2024.00,0.0034
2011.00,0.0032
1998.00,0.0035
1985.00,0.0042
1972.00,0.0028
1959.00,0.0029
1946.00,0.0034
1933.00,0.0035
1920.00,0.0040
1907.00,0.0051
1894.00,0.0045
1881.00,0.0041
1868.00,0.0041
1855.00,0.0043
1842.00,0.0043
1829.00,0.0042
1816.00,0.0041
1803.00,0.0046
1790.00,0.0045
1777.00,0.0050
1764.00,0.0050
1751.00,0.0052
1738.00,0.0053
1725.00,0.0065
1712.00,0.0077
1699.00,0.0106
1686.00,0.0225
1673.00,0.0349
1660.00,0.0461
1647.00,0.0491
1634.00,0.0455
1621.00,0.0759
1608.00,0.0543
1595.00,0.0286
1582.00,0.0506
1569.00,0.0303
1556.00,0.0146
1543.00,0.0125
1530.00,0.0113
1517.00,0.0143
1504.00,0.0194
1491.00,0.0292
1478.00,0.0160
1465.00,0.0431
1452.00,0.0368
1439.00,0.0543
1426.00,0.0648
1413.00,0.0442
1400.00,0.0606
1387.00,0.0415
1374.00,0.0346
1361.00,0.0487
1348.00,0.0366
1335.00,0.0280
1322.00,0.0314
1309.00,0.0297
1296.00,0.0534
1283.00,0.0664
1270.00,0.0448
1257.00,0.0291
1244.00,0.0381
1231.00,0.0510
1218.00,0.0394
1205.00,0.0311
1192.00,0.0513
1179.00,0.0241
1166.00,0.0224
1153.00,0.0475
1140.00,0.0203
1127.00,0.0578
1114.00,0.0270
1101.00,0.0374
1088.00,0.0185
1075.00,0.0187
1062.00,0.0322
1049.00,0.0786
1036.00,0.0398
1023.00,0.0578
1010.00,0.0264
997.00,0.0315
984.00,0.0189
971.00,0.0175
958.00,0.0154
945.00,0.0136
932.00,0.0204
919.00,0.0201
906.00,0.0152
893.00,0.0212
880.00,0.0184
867.00,0.0460
854.00,0.0357
841.00,0.0341
828.00,0.0353
815.00,0.0639
802.00,0.0204
789.00,0.0193
776.00,0.0246
763.00,0.0246
750.00,0.0273
737.00,0.0437
724.00,0.0386
711.00,0.0387
698.00,0.0419
685.00,0.0440
672.00,0.0527
659.00,0.0550
646.00,0.0521
633.00,0.0494
620.00,0.0559
607.00,0.0554
594.00,0.0658
581.00,0.0663
568.00,0.0636
555.00,0.0664
542.00,0.0688
529.00,0.0695
516.00,0.0556
503.00,0.0559
490.00,0.0550
477.00,0.0510
464.00,0.0494
451.00,0.0488
438.00,0.0492
425.00,0.0481
412.00,0.0520
400.00,0.0484