Folder: Data/FTIR/Olivia (part 19)

File: 2025_08_04_Polystyrene_film_scan2.csv
Created as New Dataset,Sample 1030 By YargerLab Date Monday, August 04 2025
cm-1,A
4000.00,0.0003
3987.00,0.0003
3974.00,0.0003
3961.00,0.0003
3948.00,0.0002
3935.00,0.0003
3922.00,0.0003
3909.00,0.0002
3896.00,0.0001
3883.00,0.0002
3870.00,0.0002
3857.00,0.0002
3844.00,0.0002
3831.00,0.0002
3818.00,0.0001
3805.00,0.0002
3792.00,0.0003
3779.00,0.0003
3766.00,0.0003
3753.00,0.0002
3740.00,-0.0000
3727.00,0.0001
3714.00,0.0002
3701.00,0.0001
3688.00,0.0001
3675.00,0.0000
3662.00,0.0002
3649.00,-0.0001
3636.00,0.0001
3623.00,0.0000
3610.00,0.0001
3597.00,0.0002
3584.00,0.0002
3571.00,0.0002
3558.00,0.0003
3545.00,0.0003
3532.00,0.0004
3519.00,0.0005
3506.00,0.0006
3493.00,0.0006
3480.00,0.0006
3467.00,0.0006
3454.00,0.0007
3441.00,0.0007
3428.00,0.0007
3415.00,0.0008
3402.00,0.0007
3389.00,0.0007
3376.00,0.0007
3363.00,0.0007
3350.00,0.0007
3337.00,0.0007
3324.00,0.0007
3311.00,0.0007
3298.00,0.0007
3285.00,0.0007
3272.00,0.0006
3259.00,0.0006
3246.00,0.0006
3233.00,0.0005
3220.00,0.0005
3207.00,0.0005
3194.00,0.0005
3181.00,0.0005
3168.00,0.0005
3155.00,0.0005
3142.00,0.0004
3129.00,0.0004
3116.00,0.0005
3103.00,0.0013
3090.00,0.0017
3077.00,0.0029
3064.00,0.0039
3051.00,0.0031
3038.00,0.0032
3025.00,0.0094
3012.00,0.0025
2999.00,0.0023
2986.00,0.0011
2973.00,0.0016
2960.00,0.0032
2947.00,0.0048
2934.00,0.0101
2921.00,0.0159
2908.00,0.0109
2895.00,0.0063
2882.00,0.0041
2869.00,0.0036
2856.00,0.0061
2843.00,0.0052
2830.00,0.0014
2817.00,0.0009
2804.00,0.0009
2791.00,0.0007
2778.00,0.0006
2765.00,0.0006
2752.00,0.0005
2739.00,0.0005
2726.00,0.0005
2713.00,0.0005
2700.00,0.0005
2687.00,0.0005
2674.00,0.0005
2661.00,0.0008
2648.00,0.0010
2635.00,0.0010
2622.00,0.0008
2609.00,0.0007
2596.00,0.0007
2583.00,0.0006
2570.00,0.0005
2557.00,0.0004
2544.00,0.0004
2531.00,0.0004
2518.00,0.0004
2505.00,0.0002
2492.00,0.0002
2479.00,0.0002
2466.00,0.0002
2453.00,0.0003
2440.00,0.0002
2427.00,0.0002
2414.00,0.0000
2401.00,-0.0001
2388.00,-0.0001
2375.00,-0.0001
2362.00,-0.0000
2349.00,0.0002
2336.00,0.0004
2323.00,0.0013
2310.00,0.0007
2297.00,0.0008
2284.00,0.0011
2271.00,0.0006
2258.00,0.0006
2245.00,0.0003
2232.00,0.0005
2219.00,0.0002
2206.00,0.0001
2193.00,0.0002
2180.00,-0.0001
2167.00,0.0010
2154.00,-0.0021
2141.00,-0.0013
2128.00,-0.0011
2115.00,-0.0000
2102.00,-0.0001
2089.00,-0.0002
2076.00,0.0000
2063.00,-0.0002
2050.00,0.0007
2037.00,0.0000
2024.00,-0.0004
2011.00,-0.0007
1998.00,-0.0005
1985.00,0.0006
1972.00,-0.0007
1959.00,-0.0004
1946.00,0.0005
1933.00,0.0001
1920.00,-0.0003
1907.00,-0.0003
1894.00,0.0000
1881.00,0.0006
1868.00,0.0007
1855.00,0.0001
1842.00,-0.0001
1829.00,0.0001
1816.00,0.0004
1803.00,0.0012
1790.00,0.0007
1777.00,0.0005
1764.00,0.0008
1751.00,0.0015
1738.00,0.0018
1725.00,0.0014
1712.00,0.0011
1699.00,0.0006
1686.00,0.0002
1673.00,0.0014
1660.00,0.0022
1647.00,0.0017
1634.00,0.0013
1621.00,0.0013
1608.00,0.0039
1595.00,0.0056
1582.00,0.0045
1569.00,0.0011
1556.00,0.0010
1543.00,0.0019
1530.00,0.0011
1517.00,0.0010
1504.00,0.0023
1491.00,0.0267
1478.00,0.0035
1465.00,0.0043
1452.00,0.0291
1439.00,0.0110
1426.00,0.0031
1413.00,0.0023
1400.00,0.0022
1387.00,0.0040
1374.00,0.0065
1361.00,0.0061
1348.00,0.0055
1335.00,0.0050
1322.00,0.0054
1309.00,0.0055
1296.00,0.0046
1283.00,0.0038
1270.00,0.0031
1257.00,0.0029
1244.00,0.0031
1231.00,0.0031
1218.00,0.0033
1205.00,0.0042
1192.00,0.0052
1179.00,0.0067
1166.00,0.0042
1153.00,0.0069
1140.00,0.0031
1127.00,0.0031
1114.00,0.0042
1101.00,0.0043
1088.00,0.0051
1075.00,0.0083
1062.00,0.0083
1049.00,0.0055
1036.00,0.0077
1023.00,0.0131
1010.00,0.0071
997.00,0.0057
984.00,0.0064
971.00,0.0062
958.00,0.0062
945.00,0.0061
932.00,0.0044
919.00,0.0052
906.00,0.0124
893.00,0.0045
880.00,0.0032
867.00,0.0026
854.00,0.0031
841.00,0.0064
828.00,0.0029
815.00,0.0029
802.00,0.0033
789.00,0.0064
776.00,0.0163
763.00,0.0431
750.00,0.0556
737.00,0.0239
724.00,0.0067
711.00,0.0151
698.00,0.1595
685.00,0.0594
672.00,0.0261
659.00,0.0156
646.00,0.0095
633.00,0.0105
620.00,0.0127
607.00,0.0099
594.00,0.0110
581.00,0.0142
568.00,0.0242
555.00,0.0353
542.00,0.0563
529.00,0.0411
516.00,0.0203
503.00,0.0135
490.00,0.0109
477.00,0.0090
464.00,0.0087
451.00,0.0076
438.00,0.0066
425.00,0.0061
412.00,0.0064
400.00,0.0060

File: 2025_08_04_Polystyrene_film_scan3.csv
Created as New Dataset,Sample 1031 By YargerLab Date Monday, August 04 2025
cm-1,A
4000.00,0.0002
3987.00,0.0002
3974.00,0.0002
3961.00,0.0002
3948.00,0.0001
3935.00,0.0002
3922.00,0.0002
3909.00,0.0001
3896.00,0.0001
3883.00,0.0001
3870.00,0.0001
3857.00,0.0001
3844.00,0.0001
3831.00,0.0002
3818.00,0.0000
3805.00,0.0002
3792.00,0.0002
3779.00,0.0002
3766.00,0.0002
3753.00,0.0001
3740.00,-0.0001
3727.00,-0.0000
3714.00,0.0001
3701.00,0.0000
3688.00,0.0000
3675.00,-0.0001
3662.00,0.0001
3649.00,-0.0002
3636.00,0.0001
3623.00,-0.0001
3610.00,0.0000
3597.00,0.0001
3584.00,0.0000
3571.00,0.0000
3558.00,0.0002
3545.00,0.0002
3532.00,0.0002
3519.00,0.0004
3506.00,0.0004
3493.00,0.0004
3480.00,0.0005
3467.00,0.0005
3454.00,0.0005
3441.00,0.0005
3428.00,0.0005
3415.00,0.0005
3402.00,0.0005
3389.00,0.0005
3376.00,0.0005
3363.00,0.0005
3350.00,0.0005
3337.00,0.0005
3324.00,0.0005
3311.00,0.0004
3298.00,0.0004
3285.00,0.0004
3272.00,0.0004
3259.00,0.0004
3246.00,0.0004
3233.00,0.0003
3220.00,0.0003
3207.00,0.0003
3194.00,0.0002
3181.00,0.0002
3168.00,0.0002
3155.00,0.0003
3142.00,0.0002
3129.00,0.0002
3116.00,0.0003
3103.00,0.0010
3090.00,0.0014
3077.00,0.0023
3064.00,0.0032
3051.00,0.0025
3038.00,0.0026
3025.00,0.0079
3012.00,0.0020
2999.00,0.0017
2986.00,0.0007
2973.00,0.0010
2960.00,0.0023
2947.00,0.0037
2934.00,0.0082
2921.00,0.0130
2908.00,0.0089
2895.00,0.0050
2882.00,0.0032
2869.00,0.0027
2856.00,0.0048
2843.00,0.0041
2830.00,0.0010
2817.00,0.0006
2804.00,0.0005
2791.00,0.0004
2778.00,0.0004
2765.00,0.0003
2752.00,0.0003
2739.00,0.0003
2726.00,0.0002
2713.00,0.0003
2700.00,0.0003
2687.00,0.0003
2674.00,0.0003
2661.00,0.0006
2648.00,0.0008
2635.00,0.0008
2622.00,0.0006
2609.00,0.0006
2596.00,0.0005
2583.00,0.0004
2570.00,0.0002
2557.00,0.0003
2544.00,0.0002
2531.00,0.0002
2518.00,0.0001
2505.00,0.0001
2492.00,0.0001
2479.00,0.0000
2466.00,0.0001
2453.00,0.0001
2440.00,0.0001
2427.00,-0.0001
2414.00,-0.0002
2401.00,-0.0002
2388.00,-0.0003
2375.00,-0.0003
2362.00,-0.0002
2349.00,-0.0001
2336.00,0.0002
2323.00,0.0012
2310.00,0.0005
2297.00,0.0006
2284.00,0.0010
2271.00,0.0005
2258.00,0.0005
2245.00,0.0002
2232.00,0.0003
2219.00,0.0001
2206.00,0.0002
2193.00,0.0001
2180.00,-0.0000
2167.00,0.0008
2154.00,-0.0022
2141.00,-0.0017
2128.00,-0.0011
2115.00,-0.0001
2102.00,-0.0001
2089.00,-0.0004
2076.00,0.0000
2063.00,-0.0004
2050.00,0.0007
2037.00,-0.0001
2024.00,-0.0005
2011.00,-0.0009
1998.00,-0.0006
1985.00,0.0005
1972.00,-0.0008
1959.00,-0.0007
1946.00,0.0000
1933.00,-0.0003
1920.00,-0.0005
1907.00,-0.0005
1894.00,-0.0002
1881.00,0.0002
1868.00,0.0003
1855.00,-0.0002
1842.00,-0.0005
1829.00,-0.0002
1816.00,-0.0000
1803.00,0.0008
1790.00,0.0003
1777.00,0.0001
1764.00,0.0004
1751.00,0.0009
1738.00,0.0012
1725.00,0.0008
1712.00,0.0006
1699.00,0.0002
1686.00,-0.0003
1673.00,0.0009
1660.00,0.0015
1647.00,0.0011
1634.00,0.0008
1621.00,0.0007
1608.00,0.0029
1595.00,0.0043
1582.00,0.0034
1569.00,0.0007
1556.00,0.0006
1543.00,0.0012
1530.00,0.0007
1517.00,0.0006
1504.00,0.0016
1491.00,0.0213
1478.00,0.0025
1465.00,0.0031
1452.00,0.0229
1439.00,0.0085
1426.00,0.0021
1413.00,0.0015
1400.00,0.0014
1387.00,0.0029
1374.00,0.0049
1361.00,0.0045
1348.00,0.0041
1335.00,0.0038
1322.00,0.0040
1309.00,0.0041
1296.00,0.0034
1283.00,0.0027
1270.00,0.0021
1257.00,0.0020
1244.00,0.0022
1231.00,0.0022
1218.00,0.0024
1205.00,0.0031
1192.00,0.0039
1179.00,0.0052
1166.00,0.0031
1153.00,0.0053
1140.00,0.0022
1127.00,0.0022
1114.00,0.0031
1101.00,0.0032
1088.00,0.0039
1075.00,0.0064
1062.00,0.0063
1049.00,0.0041
1036.00,0.0060
1023.00,0.0102
1010.00,0.0056
997.00,0.0043
984.00,0.0050
971.00,0.0049
958.00,0.0048
945.00,0.0047
932.00,0.0033
919.00,0.0040
906.00,0.0097
893.00,0.0034
880.00,0.0022
867.00,0.0020
854.00,0.0022
841.00,0.0048
828.00,0.0021
815.00,0.0020
802.00,0.0024
789.00,0.0047
776.00,0.0126
763.00,0.0333
750.00,0.0430
737.00,0.0185
724.00,0.0050
711.00,0.0118
698.00,0.1178
685.00,0.0462
672.00,0.0202
659.00,0.0119
646.00,0.0070
633.00,0.0078
620.00,0.0096
607.00,0.0075
594.00,0.0083
581.00,0.0110
568.00,0.0186
555.00,0.0273
542.00,0.0436
529.00,0.0321
516.00,0.0161
503.00,0.0104
490.00,0.0081
477.00,0.0069
464.00,0.0065
451.00,0.0064
438.00,0.0046
425.00,0.0047
412.00,0.0055
400.00,0.0011

File: 2025_08_05_Polystyrene_film_scan1.csv
Created as New Dataset,Sample 1066 By YargerLab Date Monday, August 04 2025
cm-1,A
4000.00,0.0004
3987.00,0.0004
3974.00,0.0003
3961.00,0.0004
3948.00,0.0003
3935.00,0.0003
3922.00,0.0003
3909.00,0.0004
3896.00,0.0002
3883.00,0.0003
3870.00,0.0002
3857.00,0.0002
3844.00,0.0002
3831.00,0.0003
3818.00,0.0001
3805.00,0.0002
3792.00,0.0003
3779.00,0.0004
3766.00,0.0003
3753.00,0.0001
3740.00,0.0001
3727.00,0.0003
3714.00,0.0003
3701.00,0.0003
3688.00,0.0001
3675.00,0.0001
3662.00,0.0003
3649.00,-0.0000
3636.00,0.0002
3623.00,0.0002
3610.00,0.0002
3597.00,0.0003
3584.00,0.0003
3571.00,0.0005
3558.00,0.0005
3545.00,0.0005
3532.00,0.0006
3519.00,0.0007
3506.00,0.0007
3493.00,0.0008
3480.00,0.0009
3467.00,0.0009
3454.00,0.0009
3441.00,0.0010
3428.00,0.0010
3415.00,0.0010
3402.00,0.0010
3389.00,0.0010
3376.00,0.0010
3363.00,0.0010
3350.00,0.0010
3337.00,0.0010
3324.00,0.0009
3311.00,0.0010
3298.00,0.0009
3285.00,0.0009
3272.00,0.0009
3259.00,0.0009
3246.00,0.0008
3233.00,0.0007
3220.00,0.0007
3207.00,0.0006
3194.00,0.0007
3181.00,0.0006
3168.00,0.0006
3155.00,0.0006
3142.00,0.0005
3129.00,0.0005
3116.00,0.0007
3103.00,0.0016
3090.00,0.0021
3077.00,0.0033
3064.00,0.0045
3051.00,0.0035
3038.00,0.0036
3025.00,0.0105
3012.00,0.0029
2999.00,0.0027
2986.00,0.0015
2973.00,0.0022
2960.00,0.0027
2947.00,0.0043
2934.00,0.0088
2921.00,0.0124
2908.00,0.0095
2895.00,0.0057
2882.00,0.0039
2869.00,0.0030
2856.00,0.0044
2843.00,0.0044
2830.00,0.0014
2817.00,0.0009
2804.00,0.0009
2791.00,0.0007
2778.00,0.0007
2765.00,0.0006
2752.00,0.0006
2739.00,0.0006
2726.00,0.0006
2713.00,0.0006
2700.00,0.0006
2687.00,0.0006
2674.00,0.0006
2661.00,0.0009
2648.00,0.0011
2635.00,0.0011
2622.00,0.0010
2609.00,0.0009
2596.00,0.0008
2583.00,0.0007
2570.00,0.0007
2557.00,0.0006
2544.00,0.0005
2531.00,0.0004
2518.00,0.0004
2505.00,0.0005
2492.00,0.0003
2479.00,0.0003
2466.00,0.0003
2453.00,0.0004
2440.00,0.0003
2427.00,0.0001
2414.00,0.0001
2401.00,-0.0000
2388.00,-0.0000
2375.00,-0.0001
2362.00,0.0001
2349.00,0.0003
2336.00,0.0006
2323.00,0.0017
2310.00,0.0009
2297.00,0.0010
2284.00,0.0012
2271.00,0.0009
2258.00,0.0007
2245.00,0.0005
2232.00,0.0005
2219.00,0.0003
2206.00,0.0004
2193.00,0.0006
2180.00,-0.0000
2167.00,0.0012
2154.00,-0.0023
2141.00,-0.0015
2128.00,-0.0012
2115.00,0.0000
2102.00,0.0001
2089.00,-0.0002
2076.00,0.0002
2063.00,-0.0002
2050.00,0.0009
2037.00,0.0003
2024.00,-0.0005
2011.00,-0.0003
1998.00,-0.0002
1985.00,0.0004
1972.00,-0.0011
1959.00,-0.0006
1946.00,0.0005
1933.00,0.0001
1920.00,-0.0003
1907.00,-0.0004
1894.00,0.0001
1881.00,0.0007
1868.00,0.0008
1855.00,0.0001
1842.00,-0.0002
1829.00,0.0003
1816.00,0.0004
1803.00,0.0013
1790.00,0.0007
1777.00,0.0006
1764.00,0.0008
1751.00,0.0015
1738.00,0.0016
1725.00,0.0013
1712.00,0.0011
1699.00,0.0009
1686.00,0.0012
1673.00,0.0021
1660.00,0.0023
1647.00,0.0015
1634.00,0.0011
1621.00,0.0013
1608.00,0.0041
1595.00,0.0057
1582.00,0.0044
1569.00,0.0012
1556.00,0.0012
1543.00,0.0018
1530.00,0.0013
1517.00,0.0013
1504.00,0.0024
1491.00,0.0265
1478.00,0.0034
1465.00,0.0037
1452.00,0.0281
1439.00,0.0108
1426.00,0.0032
1413.00,0.0024
1400.00,0.0024
1387.00,0.0041
1374.00,0.0066
1361.00,0.0059
1348.00,0.0052
1335.00,0.0047
1322.00,0.0051
1309.00,0.0053
1296.00,0.0045
1283.00,0.0040
1270.00,0.0031
1257.00,0.0028
1244.00,0.0029
1231.00,0.0028
1218.00,0.0029
1205.00,0.0038
1192.00,0.0048
1179.00,0.0062
1166.00,0.0040
1153.00,0.0068
1140.00,0.0031
1127.00,0.0031
1114.00,0.0039
1101.00,0.0041
1088.00,0.0049
1075.00,0.0079
1062.00,0.0077
1049.00,0.0050
1036.00,0.0070
1023.00,0.0121
1010.00,0.0065
997.00,0.0052
984.00,0.0061
971.00,0.0060
958.00,0.0063
945.00,0.0063
932.00,0.0044
919.00,0.0049
906.00,0.0115
893.00,0.0042
880.00,0.0030
867.00,0.0027
854.00,0.0030
841.00,0.0059
828.00,0.0027
815.00,0.0029
802.00,0.0031
789.00,0.0060
776.00,0.0151
763.00,0.0387
750.00,0.0499
737.00,0.0218
724.00,0.0060
711.00,0.0140
698.00,0.1334
685.00,0.0529
672.00,0.0237
659.00,0.0143
646.00,0.0088
633.00,0.0097
620.00,0.0117
607.00,0.0090
594.00,0.0101
581.00,0.0132
568.00,0.0218
555.00,0.0317
542.00,0.0499
529.00,0.0371
516.00,0.0185
503.00,0.0129
490.00,0.0102
477.00,0.0085
464.00,0.0083
451.00,0.0071
438.00,0.0076
425.00,0.0075
412.00,0.0082
400.00,0.0076

File: 2025_08_05_Polystyrene_film_scan3.csv
Created as New Dataset,Sample 1068 By YargerLab Date Tuesday, August 05 2025
cm-1,A
4000.00,0.0002
3987.00,0.0002
3974.00,0.0002
3961.00,0.0002
3948.00,0.0002
3935.00,0.0001
3922.00,0.0002
3909.00,0.0002
3896.00,0.0001
3883.00,0.0001
3870.00,0.0000
3857.00,0.0001
3844.00,0.0002
3831.00,0.0001
3818.00,0.0001
3805.00,0.0001
3792.00,0.0002
3779.00,0.0002
3766.00,0.0002
3753.00,0.0002
3740.00,0.0001
3727.00,0.0001
3714.00,0.0002
3701.00,0.0002
3688.00,-0.0000
3675.00,0.0000
3662.00,0.0001
3649.00,-0.0002
3636.00,0.0001
3623.00,0.0001
3610.00,0.0001
3597.00,0.0001
3584.00,0.0001
3571.00,0.0002
3558.00,0.0002
3545.00,0.0002
3532.00,0.0003
3519.00,0.0003
3506.00,0.0003
3493.00,0.0004
3480.00,0.0004
3467.00,0.0004
3454.00,0.0005
3441.00,0.0005
3428.00,0.0005
3415.00,0.0005
3402.00,0.0005
3389.00,0.0004
3376.00,0.0004
3363.00,0.0004
3350.00,0.0004
3337.00,0.0004
3324.00,0.0004
3311.00,0.0004
3298.00,0.0004
3285.00,0.0004
3272.00,0.0004
3259.00,0.0004
3246.00,0.0004
3233.00,0.0003
3220.00,0.0004
3207.00,0.0003
3194.00,0.0003
3181.00,0.0003
3168.00,0.0003
3155.00,0.0003
3142.00,0.0002
3129.00,0.0003
3116.00,0.0005
3103.00,0.0014
3090.00,0.0020
3077.00,0.0032
3064.00,0.0045
3051.00,0.0035
3038.00,0.0036
3025.00,0.0110
3012.00,0.0027
2999.00,0.0023
2986.00,0.0008
2973.00,0.0009
2960.00,0.0017
2947.00,0.0039
2934.00,0.0086
2921.00,0.0123
2908.00,0.0094
2895.00,0.0053
2882.00,0.0035
2869.00,0.0026
2856.00,0.0042
2843.00,0.0042
2830.00,0.0012
2817.00,0.0008
2804.00,0.0007
2791.00,0.0005
2778.00,0.0005
2765.00,0.0005
2752.00,0.0005
2739.00,0.0005
2726.00,0.0005
2713.00,0.0005
2700.00,0.0005
2687.00,0.0005
2674.00,0.0005
2661.00,0.0008
2648.00,0.0010
2635.00,0.0010
2622.00,0.0009
2609.00,0.0008
2596.00,0.0008
2583.00,0.0006
2570.00,0.0005
2557.00,0.0005
2544.00,0.0004
2531.00,0.0004
2518.00,0.0004
2505.00,0.0003
2492.00,0.0002
2479.00,0.0003
2466.00,0.0003
2453.00,0.0003
2440.00,0.0002
2427.00,0.0000
2414.00,0.0000
2401.00,-0.0001
2388.00,-0.0001
2375.00,-0.0003
2362.00,-0.0001
2349.00,-0.0000
2336.00,0.0003
2323.00,0.0014
2310.00,0.0007
2297.00,0.0009
2284.00,0.0013
2271.00,0.0008
2258.00,0.0007
2245.00,0.0005
2232.00,0.0004
2219.00,0.0004
2206.00,0.0003
2193.00,0.0003
2180.00,0.0000
2167.00,0.0014
2154.00,-0.0022
2141.00,-0.0013
2128.00,-0.0013
2115.00,-0.0000
2102.00,0.0001
2089.00,-0.0002
2076.00,0.0001
2063.00,-0.0002
2050.00,0.0009
2037.00,0.0001
2024.00,-0.0003
2011.00,-0.0004
1998.00,-0.0003
1985.00,0.0007
1972.00,-0.0009
1959.00,-0.0005
1946.00,0.0006
1933.00,0.0002
1920.00,-0.0003
1907.00,-0.0003
1894.00,0.0002
1881.00,0.0007
1868.00,0.0009
1855.00,0.0001
1842.00,-0.0002
1829.00,0.0002
1816.00,0.0004
1803.00,0.0014
1790.00,0.0007
1777.00,0.0007
1764.00,0.0009
1751.00,0.0016
1738.00,0.0020
1725.00,0.0015
1712.00,0.0012
1699.00,0.0009
1686.00,0.0008
1673.00,0.0014
1660.00,0.0015
1647.00,0.0011
1634.00,0.0009
1621.00,0.0011
1608.00,0.0043
1595.00,0.0061
1582.00,0.0046
1569.00,0.0010
1556.00,0.0010
1543.00,0.0016
1530.00,0.0011
1517.00,0.0011
1504.00,0.0024
1491.00,0.0291
1478.00,0.0033
1465.00,0.0033
1452.00,0.0313
1439.00,0.0115
1426.00,0.0030
1413.00,0.0021
1400.00,0.0020
1387.00,0.0039
1374.00,0.0065
1361.00,0.0061
1348.00,0.0054
1335.00,0.0049
1322.00,0.0053
1309.00,0.0055
1296.00,0.0045
1283.00,0.0040
1270.00,0.0031
1257.00,0.0027
1244.00,0.0029
1231.00,0.0028
1218.00,0.0030
1205.00,0.0040
1192.00,0.0051
1179.00,0.0066
1166.00,0.0039
1153.00,0.0069
1140.00,0.0028
1127.00,0.0028
1114.00,0.0038
1101.00,0.0039
1088.00,0.0050
1075.00,0.0083
1062.00,0.0081
1049.00,0.0052
1036.00,0.0076
1023.00,0.0132
1010.00,0.0070
997.00,0.0056
984.00,0.0065
971.00,0.0063
958.00,0.0061
945.00,0.0061
932.00,0.0044
919.00,0.0052
906.00,0.0126
893.00,0.0044
880.00,0.0030
867.00,0.0027
854.00,0.0030
841.00,0.0063
828.00,0.0026
815.00,0.0027
802.00,0.0031
789.00,0.0063
776.00,0.0165
763.00,0.0433
750.00,0.0556
737.00,0.0236
724.00,0.0063
711.00,0.0150
698.00,0.1521
685.00,0.0569
672.00,0.0251
659.00,0.0148
646.00,0.0089
633.00,0.0099
620.00,0.0123
607.00,0.0093
594.00,0.0105
581.00,0.0139
568.00,0.0238
555.00,0.0345
542.00,0.0545
529.00,0.0396
516.00,0.0194
503.00,0.0133
490.00,0.0103
477.00,0.0083
464.00,0.0077
451.00,0.0074
438.00,0.0067
425.00,0.0061
412.00,0.0059
400.00,0.0068

File: 2025_08_05_silicon_dish_scan1.csv
Created as New Dataset,Sample 1072 By YargerLab Date Tuesday, August 05 2025
cm-1,A
4000.00,0.0009
3987.00,0.0009
3974.00,0.0008
3961.00,0.0009
3948.00,0.0008
3935.00,0.0008
3922.00,0.0008
3909.00,0.0008
3896.00,0.0008
3883.00,0.0008
3870.00,0.0007
3857.00,0.0008
3844.00,0.0009
3831.00,0.0008
3818.00,0.0008
3805.00,0.0009
3792.00,0.0011
3779.00,0.0013
3766.00,0.0013
3753.00,0.0013
3740.00,0.0012
3727.00,0.0014
3714.00,0.0018
3701.00,0.0025
3688.00,0.0029
3675.00,0.0038
3662.00,0.0049
3649.00,0.0054
3636.00,0.0058
3623.00,0.0059
3610.00,0.0060
3597.00,0.0063
3584.00,0.0066
3571.00,0.0068
3558.00,0.0072
3545.00,0.0077
3532.00,0.0083
3519.00,0.0088
3506.00,0.0093
3493.00,0.0097
3480.00,0.0101
3467.00,0.0105
3454.00,0.0109
3441.00,0.0111
3428.00,0.0113
3415.00,0.0115
3402.00,0.0115
3389.00,0.0116
3376.00,0.0115
3363.00,0.0115
3350.00,0.0113
3337.00,0.0113
3324.00,0.0111
3311.00,0.0111
3298.00,0.0109
3285.00,0.0108
3272.00,0.0107
3259.00,0.0106
3246.00,0.0104
3233.00,0.0103
3220.00,0.0101
3207.00,0.0098
3194.00,0.0096
3181.00,0.0094
3168.00,0.0091
3155.00,0.0089
3142.00,0.0087
3129.00,0.0085
3116.00,0.0085
3103.00,0.0082
3090.00,0.0079
3077.00,0.0077
3064.00,0.0076
3051.00,0.0073
3038.00,0.0071
3025.00,0.0070
3012.00,0.0070
2999.00,0.0076
2986.00,0.0109
2973.00,0.0309
2960.00,0.0594
2947.00,0.0163
2934.00,0.0084
2921.00,0.0059
2908.00,0.0107
2895.00,0.0078
2882.00,0.0057
2869.00,0.0047
2856.00,0.0035
2843.00,0.0037
2830.00,0.0040
2817.00,0.0040
2804.00,0.0039
2791.00,0.0037
2778.00,0.0029
2765.00,0.0026
2752.00,0.0023
2739.00,0.0022
2726.00,0.0021
2713.00,0.0020
2700.00,0.0020
2687.00,0.0019
2674.00,0.0020
2661.00,0.0020
2648.00,0.0018
2635.00,0.0015
2622.00,0.0014
2609.00,0.0013
2596.00,0.0012
2583.00,0.0012
2570.00,0.0011
2557.00,0.0011
2544.00,0.0011
2531.00,0.0012
2518.00,0.0014
2505.00,0.0015
2492.00,0.0013
2479.00,0.0011
2466.00,0.0010
2453.00,0.0010
2440.00,0.0010
2427.00,0.0010
2414.00,0.0009
2401.00,0.0009
2388.00,0.0010
2375.00,0.0010
2362.00,0.0010
2349.00,0.0012
2336.00,0.0012
2323.00,0.0013
2310.00,0.0011
2297.00,0.0010
2284.00,0.0009
2271.00,0.0008
2258.00,0.0006
2245.00,0.0004
2232.00,0.0001
2219.00,-0.0001
2206.00,-0.0005
2193.00,-0.0009
2180.00,-0.0012
2167.00,-0.0015
2154.00,-0.0023
2141.00,-0.0014
2128.00,-0.0007
2115.00,-0.0005
2102.00,-0.0004
2089.00,-0.0006
2076.00,-0.0008
2063.00,-0.0013
2050.00,-0.0016
2037.00,-0.0040
2024.00,-0.0053
2011.00,-0.0048
1998.00,-0.0036
1985.00,-0.0027
1972.00,-0.0025
1959.00,0.0000
1946.00,0.0012
1933.00,0.0014
1920.00,0.0017
1907.00,0.0019
1894.00,0.0025
1881.00,0.0028
1868.00,0.0030
1855.00,0.0028
1842.00,0.0027
1829.00,0.0027
1816.00,0.0027
1803.00,0.0031
1790.00,0.0033
1777.00,0.0037
1764.00,0.0037
1751.00,0.0037
1738.00,0.0039
1725.00,0.0044
1712.00,0.0048
1699.00,0.0057
1686.00,0.0069
1673.00,0.0078
1660.00,0.0086
1647.00,0.0095
1634.00,0.0102
1621.00,0.0101
1608.00,0.0087
1595.00,0.0074
1582.00,0.0065
1569.00,0.0058
1556.00,0.0054
1543.00,0.0056
1530.00,0.0058
1517.00,0.0058
1504.00,0.0059
1491.00,0.0063
1478.00,0.0067
1465.00,0.0067
1452.00,0.0095
1439.00,0.0102
1426.00,0.0112
1413.00,0.0205
1400.00,0.0174
1387.00,0.0101
1374.00,0.0085
1361.00,0.0082
1348.00,0.0084
1335.00,0.0088
1322.00,0.0095
1309.00,0.0113
1296.00,0.0144
1283.00,0.0213
1270.00,0.0623
1257.00,0.2571
1244.00,0.0899
1231.00,0.0966
1218.00,0.1101
1205.00,0.1216
1192.00,0.1321
1179.00,0.1430
1166.00,0.1537
1153.00,0.1642
1140.00,0.1778
1127.00,0.1997
1114.00,0.2491
1101.00,0.3652
1088.00,0.5105
1075.00,0.5978
1062.00,0.6285
1049.00,0.6314
1036.00,0.6414
1023.00,0.7210
1010.00,0.9199
997.00,0.6764
984.00,0.3590
971.00,0.2231
958.00,0.1655
945.00,0.1281
932.00,0.1005
919.00,0.0823
906.00,0.0753
893.00,0.0789
880.00,0.1095
867.00,0.1410
854.00,0.1179
841.00,0.1089
828.00,0.1663
815.00,0.3377
802.00,0.5829
789.00,0.9436
776.00,0.6368
763.00,0.3110
750.00,0.2034
737.00,0.1568
724.00,0.1276
711.00,0.1434
698.00,0.1752
685.00,0.1722
672.00,0.1507
659.00,0.1561
646.00,0.0947
633.00,0.0927
620.00,0.0939
607.00,0.0963
594.00,0.1024
581.00,0.1113
568.00,0.1205
555.00,0.1286
542.00,0.1330
529.00,0.1340
516.00,0.1403
503.00,0.1683
490.00,0.2475
477.00,0.3946
464.00,0.5206
451.00,0.5287
438.00,0.4423
425.00,0.3331
412.00,0.3302
400.00,0.4543

File: 2025_08_05_silicon_dish_scan2.csv
Created as New Dataset,Sample 1073 By YargerLab Date Tuesday, August 05 2025
cm-1,A
4000.00,0.0007
3987.00,0.0007
3974.00,0.0006
3961.00,0.0007
3948.00,0.0006
3935.00,0.0006
3922.00,0.0006
3909.00,0.0006
3896.00,0.0006
3883.00,0.0006
3870.00,0.0006
3857.00,0.0006
3844.00,0.0007
3831.00,0.0006
3818.00,0.0006
3805.00,0.0007
3792.00,0.0009
3779.00,0.0011
3766.00,0.0012
3753.00,0.0012
3740.00,0.0011
3727.00,0.0013
3714.00,0.0017
3701.00,0.0024
3688.00,0.0029
3675.00,0.0039
3662.00,0.0051
3649.00,0.0057
3636.00,0.0061
3623.00,0.0062
3610.00,0.0064
3597.00,0.0068
3584.00,0.0070
3571.00,0.0073
3558.00,0.0078
3545.00,0.0083
3532.00,0.0089
3519.00,0.0095
3506.00,0.0100
3493.00,0.0106
3480.00,0.0110
3467.00,0.0114
3454.00,0.0118
3441.00,0.0120
3428.00,0.0123
3415.00,0.0125
3402.00,0.0126
3389.00,0.0126
3376.00,0.0125
3363.00,0.0125
3350.00,0.0124
3337.00,0.0123
3324.00,0.0121
3311.00,0.0120
3298.00,0.0119
3285.00,0.0118
3272.00,0.0116
3259.00,0.0115
3246.00,0.0113
3233.00,0.0111
3220.00,0.0108
3207.00,0.0106
3194.00,0.0103
3181.00,0.0100
3168.00,0.0097
3155.00,0.0095
3142.00,0.0093
3129.00,0.0091
3116.00,0.0090
3103.00,0.0088
3090.00,0.0085
3077.00,0.0082
3064.00,0.0080
3051.00,0.0078
3038.00,0.0075
3025.00,0.0074
3012.00,0.0074
2999.00,0.0080
2986.00,0.0114
2973.00,0.0328
2960.00,0.0636
2947.00,0.0173
2934.00,0.0090
2921.00,0.0068
2908.00,0.0115
2895.00,0.0083
2882.00,0.0061
2869.00,0.0050
2856.00,0.0039
2843.00,0.0040
2830.00,0.0042
2817.00,0.0042
2804.00,0.0041
2791.00,0.0038
2778.00,0.0030
2765.00,0.0026
2752.00,0.0024
2739.00,0.0022
2726.00,0.0021
2713.00,0.0020
2700.00,0.0020
2687.00,0.0019
2674.00,0.0020
2661.00,0.0020
2648.00,0.0017
2635.00,0.0014
2622.00,0.0013
2609.00,0.0012
2596.00,0.0011
2583.00,0.0011
2570.00,0.0011
2557.00,0.0011
2544.00,0.0011
2531.00,0.0012
2518.00,0.0013
2505.00,0.0015
2492.00,0.0013
2479.00,0.0011
2466.00,0.0010
2453.00,0.0011
2440.00,0.0009
2427.00,0.0010
2414.00,0.0010
2401.00,0.0010
2388.00,0.0010
2375.00,0.0010
2362.00,0.0011
2349.00,0.0012
2336.00,0.0012
2323.00,0.0013
2310.00,0.0011
2297.00,0.0010
2284.00,0.0009
2271.00,0.0006
2258.00,0.0006
2245.00,0.0004
2232.00,0.0001
2219.00,-0.0003
2206.00,-0.0005
2193.00,-0.0009
2180.00,-0.0014
2167.00,-0.0017
2154.00,-0.0023
2141.00,-0.0013
2128.00,-0.0007
2115.00,-0.0003
2102.00,-0.0003
2089.00,-0.0005
2076.00,-0.0009
2063.00,-0.0013
2050.00,-0.0018
2037.00,-0.0043
2024.00,-0.0053
2011.00,-0.0049
1998.00,-0.0035
1985.00,-0.0027
1972.00,-0.0024
1959.00,-0.0003
1946.00,0.0012
1933.00,0.0016
1920.00,0.0018
1907.00,0.0021
1894.00,0.0026
1881.00,0.0031
1868.00,0.0032
1855.00,0.0030
1842.00,0.0028
1829.00,0.0028
1816.00,0.0029
1803.00,0.0032
1790.00,0.0035
1777.00,0.0039
1764.00,0.0039
1751.00,0.0039
1738.00,0.0041
1725.00,0.0047
1712.00,0.0051
1699.00,0.0060
1686.00,0.0075
1673.00,0.0086
1660.00,0.0096
1647.00,0.0105
1634.00,0.0111
1621.00,0.0109
1608.00,0.0095
1595.00,0.0081
1582.00,0.0073
1569.00,0.0065
1556.00,0.0060
1543.00,0.0064
1530.00,0.0063
1517.00,0.0063
1504.00,0.0065
1491.00,0.0069
1478.00,0.0075
1465.00,0.0075
1452.00,0.0104
1439.00,0.0112
1426.00,0.0123
1413.00,0.0221
1400.00,0.0188
1387.00,0.0110
1374.00,0.0092
1361.00,0.0089
1348.00,0.0092
1335.00,0.0095
1322.00,0.0103
1309.00,0.0122
1296.00,0.0155
1283.00,0.0227
1270.00,0.0660
1257.00,0.2759
1244.00,0.0953
1231.00,0.1024
1218.00,0.1170
1205.00,0.1294
1192.00,0.1407
1179.00,0.1526
1166.00,0.1642
1153.00,0.1756
1140.00,0.1902
1127.00,0.2141
1114.00,0.2676
1101.00,0.3951
1088.00,0.5612
1075.00,0.6658
1062.00,0.7032
1049.00,0.7061
1036.00,0.7165
1023.00,0.8131
1010.00,1.0929
997.00,0.7685
984.00,0.3925
971.00,0.2412
958.00,0.1777
945.00,0.1371
932.00,0.1071
919.00,0.0876
906.00,0.0803
893.00,0.0841
880.00,0.1167
867.00,0.1502
854.00,0.1254
841.00,0.1158
828.00,0.1768
815.00,0.3630
802.00,0.6403
789.00,1.1161
776.00,0.7115
763.00,0.3360
750.00,0.2180
737.00,0.1676
724.00,0.1362
711.00,0.1526
698.00,0.1868
685.00,0.1837
672.00,0.1609
659.00,0.1670
646.00,0.1010
633.00,0.0989
620.00,0.1002
607.00,0.1027
594.00,0.1090
581.00,0.1182
568.00,0.1285
555.00,0.1374
542.00,0.1416
529.00,0.1425
516.00,0.1492
503.00,0.1789
490.00,0.2625
477.00,0.4217
464.00,0.5694
451.00,0.5779
438.00,0.4766
425.00,0.3536
412.00,0.3501
400.00,0.4815