Folder: Data/FTIR/Wes_EC_Silk

Note: FTIR/Wes_EC_Silk/README
Weston DeCambra spider egg case silk FT-IR.

File: AT_outer_yellow_crystals_2021.dpt
3997.66,0.00012
3985.3,0.00005
3972.95,0.00003
3960.59,0.00008
3948.23,0.00012
3935.87,0.00042
3923.52,0.00013
3911.16,0.00011
3898.8,-0.00014
3886.44,0.00011
3874.09,0.00026
3861.73,0.00004
3849.37,-0.00002
3837.01,0.00060
3824.66,0.00005
3812.3,0.00014
3799.94,0.00001
3787.58,0.00017
3775.23,0.00030
3762.87,0.00015
3750.51,0.00036
3738.15,0.00021
3725.79,-0.00006
3713.44,0.00035
3701.08,0.00021
3688.72,0.00029
3676.36,0.00005
3664.01,0.00024
3651.65,0.00017
3639.29,0.00029
3626.93,0.00010
3614.58,0.00043
3602.22,0.00036
3589.86,0.00005
3577.5,0.00005
3565.15,0.00080
3552.79,0.00021
3540.43,0.00033
3528.07,0.00017
3515.72,0.00030
3503.36,0.00049
3491,0.00037
3478.64,0.00028
3466.29,0.00063
3453.93,0.00037
3441.57,0.00029
3429.21,0.00032
3416.86,0.00068
3404.5,0.00040
3392.14,0.00067
3379.78,0.00062
3367.43,0.00047
3355.07,0.00060
3342.71,0.00053
3330.35,0.00092
3318,0.00072
3305.64,0.00085
3293.28,0.00056
3280.92,0.00063
3268.57,0.00066
3256.21,0.00108
3243.85,0.00065
3231.49,0.00072
3219.14,0.00058
3206.78,0.00045
3194.42,0.00038
3182.06,0.00034
3169.71,0.00075
3157.35,0.00044
3144.99,0.00041
3132.63,0.00033
3120.28,0.00015
3107.92,0.00046
3095.56,0.00039
3083.2,0.00036
3070.85,0.00039
3058.49,0.00028
3046.13,0.00045
3033.77,0.00035
3021.42,0.00031
3009.06,0.00039
2996.7,0.00032
2984.34,0.00024
2971.99,0.00036
2959.63,0.00043
2947.27,0.00025
2934.91,0.00036
2922.56,0.00040
2910.2,0.00021
2897.84,0.00040
2885.48,0.00012
2873.13,0.00029
2860.77,0.00008
2848.41,0.00016
2836.05,0.00043
2823.7,0.00012
2811.34,0.00009
2798.98,0.00013
2786.62,0.00013
2774.27,0.00010
2761.91,0.00011
2749.55,0.00011
2737.19,0.00017
2724.84,0.00014
2712.48,-0.00011
2700.12,0.00024
2687.76,-0.00000
2675.41,0.00007
2663.05,0.00007
2650.69,0.00009
2638.33,-0.00002
2625.97,0.00011
2613.62,0.00012
2601.26,0.00011
2588.9,-0.00013
2576.54,0.00009
2564.19,0.00023
2551.83,0.00023
2539.47,0.00017
2527.11,0.00006
2514.76,0.00013
2502.4,0.00018
2490.04,0.00006
2477.68,0.00023
2465.33,0.00006
2452.97,0.00018
2440.61,0.00018
2428.25,0.00005
2415.9,0.00021
2403.54,0.00007
2391.18,-0.00017
2378.82,0.00012
2366.47,0.00041
2354.11,0.00005
2341.75,0.00006
2329.39,0.00005
2317.04,0.00022
2304.68,0.00027
2292.32,0.00024
2279.96,0.00032
2267.61,0.00024
2255.25,0.00027
2242.89,0.00039
2230.53,0.00024
2218.18,0.00010
2205.82,-0.00022
2193.46,0.00062
2181.1,0.00100
2168.75,0.00078
2156.39,0.00041
2144.03,0.00001
2131.67,0.00045
2119.32,0.00030
2106.96,0.00045
2094.6,-0.00000
2082.24,0.00050
2069.89,0.00106
2057.53,0.00042
2045.17,0.00048
2032.81,0.00133
2020.46,0.00042
2008.1,0.00171
1995.74,0.00060
1983.38,-0.00044
1971.03,-0.00029
1958.67,0.00047
1946.31,0.00017
1933.95,-0.00040
1921.6,0.00055
1909.24,0.00027
1896.88,-0.00005
1884.52,-0.00011
1872.17,0.00003
1859.81,-0.00026
1847.45,0.00015
1835.09,0.00032
1822.74,0.00008
1810.38,0.00003
1798.02,-0.00020
1785.66,-0.00015
1773.31,0.00008
1760.95,-0.00010
1748.59,0.00017
1736.23,-0.00002
1723.88,-0.00001
1711.52,0.00021
1699.16,0.00068
1686.8,0.00109
1674.45,0.00199
1662.09,0.00258
1649.73,0.00291
1637.37,0.00243
1625.02,0.00208
1612.66,0.00157
1600.3,0.00121
1587.94,0.00076
1575.58,0.00095
1563.23,0.00094
1550.87,0.00174
1538.51,0.00206
1526.15,0.00201
1513.8,0.00207
1501.44,0.00156
1489.08,0.00092
1476.72,0.00091
1464.37,0.00098
1452.01,0.00094
1439.65,0.00096
1427.29,0.00094
1414.94,0.00091
1402.58,0.00083
1390.22,0.00089
1377.86,0.00093
1365.51,0.00084
1353.15,0.00065
1340.79,0.00074
1328.43,0.00096
1316.08,0.00076
1303.72,0.00076
1291.36,0.00093
1279,0.00092
1266.65,0.00076
1254.29,0.00091
1241.93,0.00096
1229.57,0.00102
1217.22,0.00086
1204.86,0.00073
1192.5,0.00056
1180.14,0.00063
1167.79,0.00062
1155.43,0.00071
1143.07,0.00064
1130.71,0.00045
1118.36,0.00067
1106,0.00077
1093.64,0.00079
1081.28,0.00069
1068.93,0.00113
1056.57,0.00111
1044.21,0.00104
1031.85,0.00103
1019.5,0.00083
1007.14,0.00067
994.781,0.00060
982.424,0.00055
970.066,0.00040
957.708,0.00067
945.351,0.00035
932.993,0.00055
920.636,0.00038
908.278,0.00062
895.921,0.00077
883.563,0.00085
871.206,0.00050
858.848,0.00056
846.491,0.00061
834.133,0.00038
821.776,0.00055
809.418,0.00053
797.061,0.00068
784.703,0.00094
772.346,0.00093
759.988,0.00128
747.63,0.00125
735.273,0.00106
722.915,0.00103
710.558,0.00163
698.2,0.00207
685.843,0.00218
673.485,0.00218
661.128,0.00265
648.77,0.00263
636.413,0.00216
624.055,0.00252
611.698,0.00279
599.34,0.00276
586.983,0.00247
574.625,0.00280
562.268,0.00355
549.91,0.00280
537.553,0.00315
525.195,0.00369
512.837,0.00314
500.48,0.00238
488.122,0.00330
475.765,0.00269
463.407,0.00310
451.05,0.00429
438.692,0.00328
426.335,0.00195
413.977,0.00154
401.62,0.00443
399.56,0.00346