Folder: Data/Raman/2022_11_26/Data (part 2)

File: 2022_11_26_Hagfish_Film_Unstreched_532nm_Pol_1mW_750mm_600gv_1200wn_iDus_100s_10accum_Pos1.csv
282.050,5272.000,2910.000,2345.000,2048.000,1861.000,1737.000,1618.000,1524.000,1452.000,1362.000
302.749,5516.000,3069.000,2395.000,2055.000,1879.000,1744.000,1653.000,1572.000,1491.000,1432.000
323.404,5489.000,3058.000,2421.000,2094.000,1877.000,1748.000,1637.000,1591.000,1511.000,1434.000
344.011,5665.000,3111.000,2449.000,2137.000,1925.000,1788.000,1673.000,1619.000,1538.000,1450.000
364.574,5896.000,3183.000,2580.000,2239.000,1973.000,1811.000,1704.000,1628.000,1566.000,1465.000
385.089,6073.000,3311.000,2658.000,2257.000,2094.000,1850.000,1765.000,1629.000,1560.000,1489.000
405.560,6379.000,3456.000,2762.000,2324.000,2119.000,1914.000,1832.000,1718.000,1705.000,1525.000
425.984,6498.000,3444.000,2823.000,2364.000,2150.000,1932.000,1849.000,1721.000,1642.000,1565.000
446.363,6594.000,3510.000,2800.000,2356.000,2117.000,1978.000,1797.000,1761.000,1665.000,1587.000
466.698,6853.000,3621.000,2819.000,2414.000,2179.000,3175.000,1863.000,1775.000,1673.000,1655.000
486.987,7096.000,3751.000,2921.000,2505.000,2213.000,2034.000,1884.000,1809.000,1736.000,1650.000
507.232,7119.000,3834.000,2946.000,2567.000,2295.000,2105.000,1950.000,1821.000,1748.000,1658.000
527.431,7145.000,3863.000,3015.000,2535.000,2262.000,2068.000,1948.000,1835.000,1794.000,1675.000
547.586,7852.000,3925.000,3005.000,2533.000,2275.000,2111.000,1959.000,1845.000,1777.000,1683.000
567.697,7734.000,4030.000,3103.000,2649.000,2434.000,2146.000,2002.000,1893.000,1835.000,1727.000
587.763,7892.000,4174.000,3238.000,2750.000,2416.000,2242.000,2031.000,1927.000,1840.000,1756.000
607.787,8063.000,4187.000,3314.000,2732.000,2495.000,2235.000,2118.000,2011.000,1881.000,1803.000
627.764,8159.000,4264.000,3259.000,2756.000,2464.000,2281.000,2119.000,1983.000,1873.000,1792.000
647.700,8305.000,4282.000,3363.000,2843.000,2502.000,2309.000,2143.000,2012.000,1911.000,1821.000
667.590,8642.000,4572.000,3454.000,2931.000,2562.000,2332.000,2216.000,2089.000,1952.000,1828.000
687.436,8800.000,4541.000,3507.000,2941.000,2707.000,2411.000,2189.000,2104.000,1936.000,1841.000
707.241,8928.000,4641.000,3478.000,2974.000,2637.000,2441.000,2221.000,2084.000,2026.000,1899.000
727.001,9092.000,4657.000,3670.000,3014.000,2689.000,2438.000,2301.000,2106.000,1977.000,1925.000
746.719,9449.000,4845.000,3750.000,3193.000,2695.000,2522.000,2337.000,2227.000,2077.000,2015.000
766.393,9707.000,4959.000,3723.000,3154.000,2800.000,2539.000,2397.000,2252.000,2146.000,1973.000
786.024,9616.000,4830.000,3740.000,3204.000,2797.000,2550.000,2367.000,2232.000,2119.000,1986.000
805.614,9983.000,4981.000,3822.000,3241.000,2870.000,2605.000,2394.000,2220.000,2123.000,1958.000
825.159,10045.000,5166.000,3930.000,3285.000,2941.000,2718.000,2449.000,2316.000,2187.000,2051.000
844.665,10129.000,5157.000,3961.000,3351.000,2915.000,2648.000,2462.000,2332.000,2207.000,2115.000
864.125,10199.000,5133.000,3916.000,3300.000,2949.000,2639.000,2471.000,2277.000,2206.000,2065.000
883.546,10676.000,5305.000,4031.000,3423.000,2997.000,2760.000,2532.000,2402.000,2231.000,2138.000
902.923,10640.000,5283.000,4091.000,3380.000,3022.000,2760.000,2532.000,2399.000,2216.000,2106.000
922.257,10555.000,5304.000,4071.000,3428.000,3050.000,2710.000,2505.000,2367.000,2262.000,2094.000
941.552,10846.000,5477.000,4184.000,3449.000,3057.000,2804.000,2583.000,2421.000,2259.000,2144.000
960.804,10969.000,5482.000,4114.000,3507.000,3127.000,2785.000,2592.000,2397.000,2313.000,2190.000
980.016,10961.000,5391.000,4155.000,3439.000,3034.000,2715.000,2561.000,2409.000,2299.000,2139.000
999.184,11355.000,5708.000,4365.000,3768.000,3277.000,2918.000,2763.000,2582.000,2503.000,2307.000
1018.312,11392.000,5605.000,4340.000,3615.000,3225.000,2898.000,2717.000,2482.000,2362.000,2192.000
1037.400,11435.000,5764.000,4425.000,3677.000,3197.000,2920.000,2676.000,2510.000,2380.000,2303.000
1056.446,11764.000,5859.000,4457.000,3669.000,3354.000,2939.000,2784.000,2616.000,2410.000,2277.000
1075.452,11833.000,5882.000,4452.000,3760.000,3270.000,2943.000,2785.000,2549.000,2464.000,2292.000
1094.416,11830.000,5794.000,4453.000,3710.000,3284.000,2938.000,2714.000,2563.000,2455.000,2351.000
1113.341,12157.000,6001.000,4559.000,3871.000,3335.000,3075.000,2792.000,2602.000,2492.000,2336.000
1132.224,11968.000,5910.000,4466.000,3753.000,3235.000,3005.000,2690.000,2603.000,2432.000,2295.000
1151.067,12061.000,6007.000,4554.000,3828.000,3341.000,3010.000,2813.000,2602.000,2443.000,2288.000
1169.872,12403.000,6286.000,4650.000,3863.000,3393.000,3070.000,2838.000,2642.000,2504.000,2410.000
1188.634,12418.000,6195.000,4587.000,3902.000,3390.000,3102.000,2883.000,2628.000,2523.000,2363.000
1207.359,12543.000,6166.000,4662.000,3926.000,3421.000,3181.000,2815.000,2673.000,2522.000,2400.000
1226.041,13050.000,6575.000,4942.000,4123.000,3581.000,3231.000,2995.000,2800.000,2726.000,2476.000
1244.686,12732.000,6357.000,4800.000,3986.000,3468.000,3140.000,2894.000,2686.000,2632.000,2454.000
1263.290,12454.000,6153.000,4706.000,3885.000,3405.000,3097.000,2842.000,2672.000,2532.000,2377.000
1281.854,12939.000,6427.000,4834.000,4000.000,3558.000,3150.000,2935.000,2744.000,2587.000,2446.000
1300.381,12941.000,6434.000,4816.000,4103.000,3535.000,3128.000,2946.000,2755.000,2647.000,2442.000
1318.867,12605.000,6301.000,4726.000,3964.000,3472.000,3114.000,2850.000,2686.000,2560.000,2375.000
1337.316,13014.000,6445.000,4827.000,4054.000,3526.000,3135.000,2911.000,2683.000,2598.000,2398.000
1355.724,13125.000,6432.000,4864.000,4084.000,3484.000,3115.000,2874.000,2746.000,2581.000,2410.000
1374.093,13419.000,6616.000,4866.000,4075.000,3579.000,3253.000,2984.000,2791.000,2633.000,2474.000
1392.425,13321.000,6436.000,4919.000,4075.000,3606.000,3227.000,3013.000,2777.000,2635.000,2419.000
1410.717,13069.000,6526.000,4848.000,4022.000,3508.000,3157.000,2931.000,2736.000,2590.000,2426.000
1428.973,13278.000,6664.000,4948.000,4077.000,3649.000,3290.000,3000.000,2841.000,2661.000,2451.000
1447.188,13661.000,6633.000,4977.000,4212.000,3629.000,3299.000,3023.000,2785.000,2666.000,2536.000
1465.367,13776.000,6775.000,5094.000,4188.000,3680.000,3302.000,2975.000,2816.000,2688.000,2529.000
1483.506,13869.000,6678.000,5075.000,4138.000,3595.000,3289.000,3026.000,2813.000,2622.000,2469.000
1501.607,13802.000,6727.000,5059.000,4110.000,3687.000,3285.000,3003.000,2742.000,2605.000,2462.000
1519.672,14317.000,6970.000,5160.000,4236.000,3765.000,3368.000,3110.000,2859.000,2700.000,2560.000
1537.698,14178.000,6867.000,5191.000,4250.000,3712.000,3314.000,3019.000,2869.000,2642.000,2525.000
1555.688,14345.000,7082.000,5211.000,4332.000,3715.000,3391.000,3065.000,2902.000,2733.000,2523.000
1573.638,14237.000,6884.000,5215.000,4313.000,5671.000,3385.000,3047.000,2879.000,2704.000,2511.000
1591.553,14423.000,7131.000,5243.000,4400.000,3848.000,3387.000,3126.000,2857.000,2763.000,2579.000
1609.429,14486.000,7048.000,5258.000,4442.000,3844.000,3481.000,3147.000,2917.000,2803.000,2659.000
1627.268,14740.000,7048.000,5259.000,4324.000,3815.000,3416.000,3139.000,2930.000,2827.000,2606.000
1645.072,14918.000,7229.000,5455.000,4523.000,3989.000,3616.000,3260.000,3017.000,2887.000,2681.000
1662.837,14773.000,7308.000,5557.000,4577.000,4018.000,3591.000,3356.000,3135.000,2924.000,2824.000
1680.567,14827.000,7194.000,5400.000,4463.000,3882.000,3483.000,3183.000,3020.000,2785.000,2636.000
1698.259,14557.000,7018.000,5265.000,4307.000,3737.000,3332.000,3069.000,2956.000,2700.000,2612.000
1715.914,14668.000,7100.000,5299.000,4415.000,3773.000,3388.000,3159.000,2866.000,2944.000,2549.000
1733.534,14704.000,7053.000,5215.000,4330.000,3752.000,3381.000,3109.000,2908.000,2712.000,2550.000
1751.116,14919.000,7104.000,5275.000,4384.000,3804.000,3429.000,3094.000,2908.000,2709.000,2611.000
1768.664,15158.000,7310.000,5462.000,4417.000,3917.000,3480.000,3192.000,2995.000,2799.000,2641.000
1786.174,15281.000,7336.000,5424.000,4478.000,3873.000,3485.000,3197.000,2941.000,2759.000,2629.000
1803.649,15293.000,7325.000,5468.000,4449.000,3963.000,3522.000,3188.000,2954.000,2760.000,2599.000
1821.089,15506.000,7461.000,5527.000,4528.000,3975.000,3490.000,3223.000,3040.000,2913.000,2648.000
1838.491,15753.000,7500.000,5622.000,4646.000,4011.000,3609.000,3231.000,3016.000,2907.000,2681.000
1855.860,15333.000,7474.000,5517.000,4565.000,3972.000,3508.000,3217.000,3022.000,2846.000,2631.000
1873.191,15444.000,7372.000,5524.000,4508.000,3984.000,3565.000,3241.000,3049.000,2836.000,2668.000
1890.489,15417.000,7360.000,5550.000,4569.000,3987.000,3584.000,3232.000,2945.000,2899.000,2689.000
1907.749,15643.000,7536.000,5551.000,4636.000,4042.000,3595.000,3349.000,3049.000,2935.000,2717.000
1924.974,15474.000,7414.000,5491.000,4529.000,3995.000,3594.000,3345.000,3006.000,2878.000,2708.000
1942.166,15729.000,7551.000,5720.000,4725.000,4053.000,3693.000,3323.000,3115.000,2944.000,2804.000
1959.322,15821.000,7728.000,5702.000,4717.000,4077.000,3635.000,3453.000,3130.000,2963.000,2779.000
1976.444,16190.000,7884.000,5797.000,4807.000,4268.000,3729.000,3488.000,3271.000,3121.000,2897.000
1993.529,16245.000,7907.000,5914.000,4927.000,4257.000,3883.000,3571.000,3332.000,3096.000,2950.000
2010.582,16459.000,8018.000,6102.000,5035.000,4407.000,3942.000,3693.000,3442.000,3257.000,2999.000
2027.598,16533.000,8288.000,6271.000,5272.000,4669.000,4200.000,3838.000,3563.000,3428.000,3250.000

File: 2022_11_26_Hagfish_Film_Unstreched_532nm_Pol_6mW_750mm_600gv_0wn_iDus_100s_10accum_Pos1.csv
-1054.088,691.000,690.000,700.000,689.000,701.000,700.000,700.000,707.000,684.000,682.000
-1032.397,704.000,703.000,699.000,699.000,704.000,700.000,691.000,693.000,701.000,695.000
-1010.751,699.000,704.000,711.000,700.000,708.000,686.000,698.000,716.000,698.000,693.000
-989.154,988.000,708.000,711.000,702.000,706.000,707.000,705.000,690.000,707.000,709.000
-967.603,701.000,700.000,714.000,703.000,707.000,710.000,695.000,704.000,704.000,699.000
-946.100,704.000,704.000,714.000,696.000,716.000,712.000,704.000,720.000,704.000,703.000
-924.643,702.000,712.000,705.000,708.000,701.000,709.000,713.000,707.000,702.000,704.000
-903.233,716.000,723.000,716.000,1344.000,714.000,715.000,711.000,705.000,713.000,714.000
-881.869,717.000,721.000,708.000,714.000,715.000,719.000,717.000,704.000,715.000,715.000
-860.552,724.000,724.000,732.000,711.000,714.000,714.000,715.000,720.000,712.000,724.000
-839.280,730.000,719.000,736.000,725.000,720.000,720.000,717.000,718.000,717.000,732.000
-818.055,736.000,736.000,729.000,727.000,732.000,725.000,711.000,723.000,725.000,746.000
-796.875,727.000,730.000,734.000,738.000,735.000,719.000,733.000,733.000,731.000,729.000
-775.742,735.000,726.000,732.000,735.000,730.000,732.000,738.000,732.000,728.000,728.000
-754.653,743.000,735.000,737.000,727.000,740.000,729.000,735.000,728.000,740.000,738.000
-733.610,741.000,732.000,745.000,748.000,744.000,748.000,755.000,739.000,732.000,741.000
-712.612,735.000,728.000,747.000,751.000,740.000,738.000,740.000,730.000,755.000,739.000
-691.659,752.000,741.000,735.000,750.000,749.000,747.000,747.000,752.000,747.000,740.000
-670.753,759.000,758.000,744.000,753.000,748.000,759.000,745.000,758.000,749.000,748.000
-649.889,767.000,757.000,746.000,757.000,758.000,747.000,762.000,763.000,755.000,747.000
-629.071,749.000,763.000,755.000,766.000,769.000,773.000,748.000,760.000,771.000,747.000
-608.297,763.000,763.000,775.000,773.000,763.000,769.000,757.000,753.000,770.000,759.000
-587.569,768.000,775.000,768.000,764.000,771.000,773.000,770.000,769.000,767.000,754.000
-566.883,781.000,771.000,777.000,782.000,768.000,765.000,772.000,778.000,776.000,756.000
-546.242,794.000,788.000,786.000,786.000,779.000,779.000,787.000,794.000,784.000,764.000
-525.644,791.000,802.000,800.000,785.000,782.000,783.000,777.000,795.000,780.000,792.000
-505.093,808.000,790.000,808.000,774.000,807.000,793.000,804.000,795.000,795.000,779.000
-484.583,788.000,804.000,792.000,799.000,801.000,803.000,786.000,802.000,803.000,792.000
-464.116,820.000,805.000,806.000,812.000,809.000,811.000,811.000,806.000,808.000,802.000
-443.693,806.000,809.000,828.000,807.000,822.000,805.000,823.000,813.000,828.000,810.000
-423.316,817.000,818.000,812.000,826.000,832.000,832.000,795.000,815.000,827.000,831.000
-402.979,824.000,846.000,841.000,819.000,845.000,817.000,832.000,835.000,807.000,834.000
-382.685,851.000,815.000,842.000,835.000,824.000,833.000,823.000,827.000,827.000,835.000
-362.434,851.000,821.000,845.000,838.000,851.000,840.000,844.000,847.000,848.000,852.000
-342.229,881.000,871.000,853.000,866.000,864.000,855.000,853.000,868.000,855.000,857.000
-322.063,888.000,878.000,893.000,895.000,897.000,887.000,874.000,869.000,880.000,882.000
-301.940,908.000,884.000,896.000,910.000,919.000,903.000,905.000,882.000,909.000,883.000
-281.859,922.000,913.000,915.000,904.000,932.000,1313.000,921.000,930.000,917.000,937.000
-261.823,980.000,958.000,966.000,954.000,959.000,988.000,961.000,960.000,975.000,947.000
-241.826,1042.000,976.000,1022.000,1019.000,1000.000,1002.000,996.000,997.000,1015.000,1025.000
-221.871,1051.000,1056.000,1061.000,1063.000,1066.000,1050.000,1071.000,1017.000,1052.000,1032.000
-201.959,1101.000,1082.000,1113.000,1062.000,1094.000,1096.000,1088.000,1093.000,1087.000,1075.000
-182.090,1175.000,1163.000,1177.000,1170.000,1139.000,1206.000,1182.000,1175.000,1172.000,1170.000
-162.260,1291.000,1305.000,1296.000,1297.000,1291.000,1287.000,1288.000,1321.000,1313.000,1294.000
-142.472,1483.000,1504.000,1458.000,1502.000,1475.000,1512.000,1513.000,1494.000,1505.000,1496.000
-122.724,1783.000,1802.000,1845.000,1805.000,1820.000,1786.000,1799.000,1754.000,1774.000,1796.000
-103.021,2272.000,2273.000,2325.000,2280.000,2242.000,2240.000,2248.000,2267.000,2264.000,2256.000
-83.356,2969.000,3009.000,2984.000,2961.000,2966.000,3005.000,2931.000,2908.000,2966.000,2989.000
-63.732,3647.000,3652.000,3654.000,3604.000,3600.000,3587.000,3565.000,3609.000,3639.000,3578.000
-44.149,4263.000,4208.000,4295.000,4137.000,4216.000,4198.000,4195.000,4150.000,4113.000,4122.000
-24.608,5068.000,5038.000,5131.000,5045.000,4968.000,5020.000,4954.000,4995.000,5018.000,5023.000
-5.106,4934.000,4901.000,4942.000,4964.000,4913.000,4927.000,4912.000,4843.000,4967.000,4898.000
14.356,4739.000,4720.000,4666.000,4653.000,4670.000,4614.000,4693.000,4688.000,4687.000,4715.000
33.777,5656.000,5646.000,5711.000,5633.000,5643.000,5664.000,5620.000,5609.000,5663.000,5632.000
53.157,5228.000,5211.000,5188.000,5141.000,5130.000,5146.000,5172.000,5117.000,5178.000,5131.000
72.498,4664.000,4789.000,4691.000,4723.000,4658.000,4580.000,4646.000,4627.000,4652.000,4735.000
91.800,4048.000,4069.000,4005.000,3957.000,4071.000,3967.000,4013.000,4005.000,3944.000,3981.000
111.061,3495.000,3436.000,3420.000,3374.000,3436.000,3425.000,3369.000,3426.000,3433.000,3325.000
130.281,2815.000,2747.000,2787.000,2672.000,2754.000,2762.000,2721.000,2734.000,2761.000,2747.000
149.464,2219.000,2208.000,2206.000,2227.000,2215.000,2196.000,2246.000,2224.000,2257.000,2216.000
168.607,1980.000,1907.000,1970.000,1978.000,1938.000,1991.000,1909.000,1913.000,1937.000,1931.000
187.711,1784.000,1709.000,1732.000,1720.000,1753.000,1712.000,1715.000,1723.000,1702.000,1768.000
206.774,1613.000,1642.000,1622.000,1599.000,1586.000,1620.000,1639.000,1592.000,1605.000,1623.000
225.800,1591.000,1590.000,1598.000,1591.000,1584.000,1605.000,1613.000,1588.000,1584.000,1596.000
244.787,1561.000,1574.000,1559.000,1537.000,1551.000,1526.000,1533.000,1538.000,1550.000,1519.000
263.735,1502.000,1520.000,1487.000,1468.000,1485.000,1474.000,1503.000,1459.000,1469.000,1463.000
282.643,1495.000,1485.000,1484.000,1464.000,1456.000,1469.000,1453.000,1476.000,1439.000,1444.000
301.513,1366.000,1403.000,1357.000,1361.000,1361.000,1355.000,1330.000,1375.000,1337.000,1369.000
320.346,1295.000,1330.000,1317.000,1297.000,1306.000,1335.000,1285.000,1314.000,1297.000,1300.000
339.140,1302.000,1315.000,1316.000,1302.000,1300.000,1276.000,1318.000,1294.000,1287.000,1276.000
357.894,1249.000,1223.000,1244.000,1225.000,1227.000,1257.000,1236.000,1231.000,1234.000,1207.000
376.612,1221.000,1221.000,1252.000,1195.000,1220.000,1200.000,1191.000,1198.000,1228.000,1197.000
395.292,1219.000,1237.000,1235.000,1243.000,1232.000,1234.000,1200.000,1232.000,1207.000,1217.000
413.934,1266.000,1270.000,1258.000,1281.000,1273.000,1282.000,1245.000,1247.000,1233.000,1258.000
432.536,3914.000,1245.000,1242.000,1223.000,1268.000,1253.000,1248.000,1219.000,1230.000,1235.000
451.103,1279.000,1284.000,1260.000,1251.000,1272.000,1246.000,1235.000,1239.000,1239.000,1244.000
469.633,1241.000,1252.000,1213.000,1231.000,1218.000,1222.000,1217.000,1206.000,1196.000,1228.000
488.124,1268.000,1235.000,1243.000,1259.000,1230.000,1224.000,1238.000,1271.000,1276.000,1235.000
506.577,1261.000,1243.000,1260.000,1246.000,1256.000,1255.000,1237.000,1232.000,1247.000,1238.000
524.994,1258.000,1273.000,1279.000,1246.000,1258.000,1272.000,1247.000,1272.000,1227.000,1238.000
543.375,1307.000,1326.000,1283.000,1293.000,1308.000,1318.000,1275.000,1285.000,1309.000,1275.000
561.718,1277.000,1279.000,1270.000,1284.000,1277.000,1266.000,1286.000,1270.000,1274.000,1279.000
580.023,1291.000,1304.000,1266.000,1285.000,1285.000,1258.000,1259.000,1275.000,1290.000,1266.000
598.293,1288.000,1270.000,1283.000,1270.000,1305.000,1253.000,1268.000,1250.000,1267.000,1235.000
616.526,1246.000,1287.000,1266.000,1264.000,1279.000,1213.000,1265.000,1260.000,1206.000,1247.000
634.723,1290.000,1285.000,1301.000,1287.000,1327.000,1310.000,1281.000,1292.000,1278.000,1280.000
652.881,1292.000,1293.000,1279.000,1305.000,1288.000,1297.000,1267.000,1290.000,1290.000,1265.000
671.005,1319.000,1288.000,1293.000,1240.000,1297.000,1294.000,1259.000,1293.000,1279.000,1246.000
689.093,1322.000,1341.000,1306.000,1277.000,1292.000,1304.000,1296.000,1254.000,1276.000,1279.000
707.145,1310.000,1339.000,1330.000,1342.000,1314.000,1287.000,1291.000,1287.000,1314.000,1302.000
725.159,1408.000,1378.000,1392.000,1393.000,1399.000,1409.000,1393.000,1388.000,1388.000,1388.000
743.139,1401.000,1414.000,1346.000,1412.000,1399.000,1402.000,1383.000,1379.000,1374.000,1370.000
761.084,1486.000,1481.000,1456.000,1481.000,1471.000,1498.000,1465.000,1487.000,1450.000,1431.000
778.992,1426.000,1406.000,1439.000,1428.000,1417.000,1444.000,1416.000,1407.000,1392.000,1404.000
796.864,1405.000,1399.000,1382.000,1407.000,1380.000,1409.000,1368.000,1363.000,1383.000,1345.000
814.701,1456.000,1466.000,1451.000,1463.000,1433.000,1481.000,1446.000,1427.000,1446.000,1464.000
832.504,1588.000,1626.000,1609.000,1587.000,1617.000,1592.000,1619.000,1614.000,1564.000,1591.000
850.271,1816.000,1714.000,1756.000,1684.000,1746.000,1721.000,1726.000,1708.000,1725.000,1711.000
868.001,1584.000,1597.000,1567.000,1579.000,1612.000,1605.000,1614.000,1608.000,1591.000,1611.000
885.698,1720.000,1690.000,1674.000,1671.000,1688.000,1732.000,1672.000,1662.000,1642.000,1675.000
903.360,1732.000,1734.000,1719.000,1714.000,1715.000,1722.000,1749.000,1720.000,1703.000,1740.000
920.988,1868.000,1802.000,1815.000,1803.000,1832.000,1804.000,1826.000,1785.000,1787.000,1801.000
938.579,1995.000,2002.000,2010.000,1962.000,1990.000,1986.000,2037.000,1978.000,1988.000,1959.000
943.850,2078.000,2056.000,2107.000,2076.000,2091.000,2039.000,2096.000,2059.000,2048.000,2084.000