Folder: Data/Raman/2022_11_26/Data (part 6)

File: 2022_11_26_Nylon6_532nm_Pol_6mW_750mm_600gv_3200wn_iDus_100s_10accum_Pos1.csv
2487.376,820.000,814.000,831.000,820.000,839.000,815.000,818.000,823.000,828.000,836.000
2501.895,822.000,820.000,808.000,840.000,834.000,828.000,824.000,825.000,826.000,837.000
2516.389,830.000,819.000,830.000,828.000,827.000,828.000,815.000,832.000,830.000,813.000
2530.855,840.000,853.000,862.000,867.000,855.000,868.000,858.000,862.000,866.000,863.000
2545.298,888.000,891.000,897.000,867.000,889.000,885.000,866.000,890.000,880.000,883.000
2559.714,956.000,949.000,933.000,938.000,949.000,955.000,961.000,927.000,945.000,944.000
2574.105,974.000,969.000,987.000,988.000,994.000,971.000,984.000,975.000,983.000,979.000
2588.471,986.000,969.000,992.000,985.000,986.000,999.000,1006.000,965.000,978.000,968.000
2602.811,1118.000,1128.000,1106.000,1118.000,1147.000,1129.000,1142.000,1161.000,1111.000,1100.000
2617.124,1202.000,1159.000,1217.000,1202.000,1193.000,1199.000,1212.000,1188.000,1186.000,1216.000
2631.414,1177.000,1222.000,1190.000,1174.000,1196.000,1186.000,1186.000,1182.000,1181.000,1201.000
2645.678,1217.000,1178.000,1197.000,1201.000,1188.000,1217.000,1202.000,1192.000,1204.000,1189.000
2659.917,1258.000,1244.000,1246.000,1632.000,1279.000,1261.000,1299.000,1283.000,1281.000,1243.000
2674.131,1324.000,1363.000,1357.000,1381.000,1351.000,1365.000,1337.000,1347.000,1400.000,1372.000
2688.320,1485.000,1505.000,1490.000,1495.000,1512.000,1490.000,1475.000,1499.000,1517.000,1488.000
2702.483,1711.000,1735.000,1702.000,1692.000,1723.000,1709.000,1684.000,1714.000,1700.000,1702.000
2716.622,1896.000,1908.000,1955.000,1932.000,1889.000,1917.000,1895.000,1891.000,1886.000,1854.000
2730.736,2098.000,2152.000,2169.000,2111.000,2153.000,2196.000,2177.000,2136.000,2165.000,2125.000
2744.826,2444.000,2481.000,2467.000,2505.000,2508.000,2470.000,2444.000,2531.000,2479.000,2501.000
2758.891,2403.000,2430.000,2432.000,2399.000,2433.000,2405.000,2436.000,2376.000,2401.000,2475.000
2772.931,1955.000,1993.000,1989.000,2018.000,2010.000,2043.000,2010.000,1998.000,2035.000,2052.000
2786.946,1738.000,1742.000,1802.000,1764.000,1747.000,1803.000,1737.000,1787.000,1774.000,1788.000
2800.937,1726.000,1765.000,1741.000,1733.000,1740.000,1750.000,1771.000,1772.000,1755.000,1742.000
2814.904,2013.000,1990.000,2027.000,2035.000,2016.000,2002.000,2016.000,2052.000,2030.000,2000.000
2828.846,2859.000,2895.000,2834.000,2856.000,2916.000,2854.000,2839.000,2853.000,2902.000,2872.000
2842.764,3953.000,4058.000,3995.000,3981.000,3988.000,3989.000,4024.000,4014.000,4019.000,3972.000
2856.658,13548.000,13504.000,13569.000,13674.000,13573.000,13660.000,13734.000,13757.000,13662.000,13623.000
2870.526,20294.000,20353.000,20585.000,20564.000,20693.000,20485.000,20580.000,20433.000,20504.000,20487.000
2884.372,23216.000,23483.000,23635.000,23587.000,23480.000,23598.000,23467.000,23531.000,23578.000,23766.000
2898.194,24141.000,24122.000,24336.000,24383.000,24310.000,24330.000,24389.000,24279.000,24708.000,24323.000
2911.991,33472.000,33711.000,33731.000,33810.000,33549.000,33734.000,33834.000,33682.000,33876.000,33842.000
2925.765,26038.000,26275.000,26310.000,26413.000,26590.000,26309.000,26366.000,26233.000,26486.000,26389.000
2939.515,26950.000,27007.000,27169.000,27262.000,26809.000,27273.000,27013.000,27164.000,26957.000,27043.000
2953.239,17015.000,17053.000,17084.000,17063.000,17077.000,17083.000,16980.000,17041.000,16945.000,17119.000
2966.941,10679.000,10769.000,10824.000,10808.000,10795.000,10740.000,10783.000,10660.000,10727.000,10765.000
2980.620,6521.000,6667.000,6712.000,6671.000,6707.000,6581.000,6647.000,6683.000,6600.000,6685.000
2994.275,3840.000,3849.000,3947.000,3857.000,3906.000,3879.000,3892.000,3866.000,3877.000,3891.000
3007.906,2771.000,2747.000,2765.000,2797.000,2752.000,2785.000,2787.000,2744.000,2743.000,2795.000
3021.514,2247.000,2201.000,2241.000,2214.000,2237.000,2218.000,2212.000,2232.000,2248.000,2243.000
3035.097,2014.000,1988.000,2000.000,2027.000,2004.000,2000.000,1994.000,2028.000,2026.000,2062.000
3048.658,1875.000,1902.000,1918.000,1899.000,1961.000,1953.000,1905.000,1878.000,1865.000,1912.000
3062.196,1880.000,1918.000,1881.000,1934.000,1904.000,1874.000,1895.000,1894.000,1898.000,1894.000
3075.711,1851.000,1866.000,1904.000,1883.000,1832.000,1921.000,1888.000,1872.000,1872.000,1886.000
3089.202,1748.000,1711.000,1709.000,1724.000,1688.000,1721.000,1716.000,1675.000,1734.000,1721.000
3102.670,1497.000,1491.000,1486.000,1518.000,1479.000,1513.000,1482.000,1496.000,1504.000,1478.000
3116.114,1341.000,1367.000,1338.000,1361.000,1313.000,1348.000,1351.000,1368.000,1349.000,1315.000
3129.536,1226.000,1207.000,1212.000,1206.000,1189.000,1245.000,1212.000,1226.000,1206.000,1209.000
3142.935,1144.000,1132.000,1137.000,1145.000,1121.000,1132.000,1106.000,1152.000,1113.000,1126.000
3156.311,1100.000,1108.000,1115.000,1121.000,1097.000,1113.000,1109.000,1128.000,1123.000,1084.000
3169.665,1119.000,1114.000,1098.000,1105.000,1081.000,1130.000,1114.000,1089.000,1098.000,1120.000
3182.995,1143.000,1151.000,1161.000,1159.000,1149.000,1169.000,1144.000,1165.000,1143.000,1166.000
3196.302,1263.000,1224.000,1267.000,1252.000,1241.000,1255.000,1229.000,1262.000,1245.000,1233.000
3209.587,1306.000,1300.000,1305.000,1300.000,1336.000,1313.000,1267.000,1298.000,1267.000,1292.000
3222.849,1363.000,1361.000,1372.000,1358.000,1381.000,1378.000,1370.000,1346.000,1368.000,1359.000
3236.090,1508.000,1494.000,1498.000,1526.000,1508.000,1479.000,1513.000,1508.000,1509.000,1501.000
3249.307,1789.000,1812.000,1768.000,1776.000,1786.000,1768.000,1775.000,1742.000,1783.000,1761.000
3262.502,2184.000,2277.000,2234.000,2247.000,2283.000,2252.000,2216.000,2246.000,2251.000,2211.000
3275.674,2927.000,2947.000,2929.000,2944.000,2960.000,2945.000,2930.000,2944.000,2987.000,2908.000
3288.824,4077.000,4190.000,4142.000,4172.000,4149.000,4103.000,4113.000,4163.000,4084.000,4098.000
3301.952,7282.000,7301.000,7300.000,7302.000,7354.000,7299.000,7338.000,7392.000,7324.000,7399.000
3315.058,5106.000,5122.000,5149.000,5159.000,5176.000,5101.000,5142.000,5200.000,5155.000,5074.000
3328.142,3739.000,3743.000,3790.000,3789.000,3781.000,3754.000,3779.000,3787.000,3794.000,3741.000
3341.202,2664.000,2628.000,2702.000,2616.000,2633.000,2639.000,2614.000,2649.000,2626.000,2663.000
3354.242,2048.000,2071.000,2027.000,2033.000,2030.000,2039.000,2065.000,2035.000,2065.000,2073.000
3367.260,1614.000,1704.000,1660.000,1681.000,1663.000,1663.000,1648.000,1685.000,1705.000,1661.000
3380.256,1428.000,1448.000,1422.000,1437.000,1431.000,1430.000,1453.000,1429.000,1430.000,1442.000
3393.229,1307.000,1320.000,1302.000,1293.000,1318.000,1308.000,1335.000,1309.000,1293.000,1323.000
3406.182,1209.000,1226.000,1219.000,1237.000,1233.000,1235.000,1226.000,1250.000,1219.000,1231.000
3419.112,1154.000,1184.000,1172.000,1165.000,1164.000,1143.000,1163.000,1162.000,1187.000,1193.000
3432.019,1129.000,1147.000,1128.000,1147.000,1113.000,1128.000,1151.000,1142.000,1117.000,1147.000
3444.906,1097.000,1108.000,1122.000,1118.000,1085.000,1118.000,1107.000,1102.000,1106.000,1112.000
3457.771,1072.000,1063.000,1065.000,1075.000,1070.000,1061.000,1068.000,1106.000,1072.000,1054.000
3470.615,993.000,983.000,993.000,990.000,1003.000,1003.000,995.000,977.000,993.000,977.000
3483.438,933.000,974.000,940.000,1736.000,947.000,939.000,975.000,947.000,942.000,935.000
3496.237,924.000,926.000,927.000,915.000,922.000,922.000,915.000,918.000,909.000,912.000
3509.017,890.000,895.000,887.000,886.000,880.000,913.000,883.000,873.000,886.000,920.000
3521.775,886.000,875.000,896.000,863.000,900.000,867.000,873.000,864.000,869.000,876.000
3534.512,843.000,865.000,856.000,862.000,857.000,850.000,860.000,861.000,837.000,850.000
3547.227,841.000,825.000,844.000,838.000,828.000,839.000,842.000,841.000,828.000,831.000
3559.922,830.000,811.000,834.000,816.000,836.000,832.000,830.000,814.000,821.000,821.000
3572.594,803.000,804.000,818.000,809.000,1369.000,790.000,813.000,811.000,805.000,800.000
3585.246,804.000,798.000,805.000,822.000,810.000,825.000,792.000,816.000,801.000,800.000
3597.877,800.000,787.000,821.000,827.000,805.000,798.000,819.000,809.000,808.000,807.000
3610.488,811.000,790.000,802.000,815.000,809.000,811.000,809.000,807.000,816.000,801.000
3623.077,813.000,811.000,809.000,801.000,803.000,821.000,804.000,801.000,811.000,801.000
3635.646,821.000,829.000,815.000,811.000,811.000,819.000,837.000,820.000,799.000,825.000
3648.192,825.000,824.000,820.000,830.000,811.000,811.000,821.000,809.000,822.000,843.000
3660.719,836.000,840.000,824.000,830.000,835.000,1146.000,839.000,832.000,840.000,840.000
3673.226,866.000,865.000,872.000,876.000,859.000,871.000,871.000,852.000,860.000,866.000
3685.711,880.000,875.000,868.000,884.000,884.000,881.000,879.000,891.000,871.000,876.000
3698.177,872.000,866.000,870.000,862.000,861.000,887.000,859.000,859.000,858.000,865.000
3710.621,862.000,875.000,872.000,868.000,871.000,868.000,853.000,864.000,857.000,850.000
3723.044,847.000,839.000,863.000,840.000,869.000,838.000,850.000,855.000,849.000,856.000
3735.447,851.000,854.000,849.000,863.000,851.000,857.000,844.000,839.000,851.000,861.000
3747.831,862.000,892.000,866.000,873.000,852.000,856.000,872.000,864.000,864.000,877.000
3760.193,867.000,883.000,860.000,860.000,880.000,874.000,872.000,884.000,865.000,880.000
3772.536,893.000,869.000,873.000,881.000,884.000,878.000,888.000,887.000,881.000,888.000
3784.858,911.000,903.000,895.000,903.000,888.000,894.000,895.000,900.000,905.000,911.000
3797.159,929.000,923.000,909.000,927.000,907.000,925.000,904.000,916.000,906.000,920.000
3809.441,942.000,943.000,964.000,951.000,955.000,963.000,948.000,944.000,956.000,927.000
3821.703,985.000,993.000,992.000,981.000,997.000,995.000,999.000,994.000,974.000,983.000
3833.945,1090.000,1089.000,1082.000,1084.000,1086.000,1082.000,1061.000,1075.000,1059.000,1056.000
3846.167,1206.000,1202.000,1232.000,1228.000,1214.000,1243.000,1234.000,1217.000,1226.000,1234.000
3849.829,1331.000,1339.000,1317.000,1319.000,1322.000,1300.000,1327.000,1339.000,1324.000,1309.000