Folder: Data/FTIR/Mary/Jul1

Note: FTIR/README
YargerLab FT-IR Data Repo

File: 2025_07_01_Polystyrene_Std_MEL_scan1.csv
Created as New Dataset,Sample 752 By YargerLab Date Sunday, June 29 2025
cm-1,A
4000.00,0.0010
3987.00,0.0010
3974.00,0.0012
3961.00,0.0010
3948.00,0.0013
3935.00,0.0012
3922.00,0.0012
3909.00,0.0009
3896.00,0.0013
3883.00,0.0014
3870.00,0.0015
3857.00,0.0010
3844.00,0.0013
3831.00,0.0014
3818.00,0.0015
3805.00,0.0012
3792.00,0.0011
3779.00,0.0012
3766.00,0.0015
3753.00,0.0018
3740.00,0.0021
3727.00,0.0019
3714.00,0.0016
3701.00,0.0012
3688.00,0.0013
3675.00,0.0006
3662.00,-0.0006
3649.00,0.0005
3636.00,0.0002
3623.00,0.0014
3610.00,0.0021
3597.00,0.0016
3584.00,0.0017
3571.00,0.0016
3558.00,0.0014
3545.00,0.0018
3532.00,0.0015
3519.00,0.0016
3506.00,0.0018
3493.00,0.0017
3480.00,0.0017
3467.00,0.0016
3454.00,0.0018
3441.00,0.0017
3428.00,0.0018
3415.00,0.0018
3402.00,0.0018
3389.00,0.0019
3376.00,0.0019
3363.00,0.0019
3350.00,0.0020
3337.00,0.0018
3324.00,0.0019
3311.00,0.0019
3298.00,0.0020
3285.00,0.0020
3272.00,0.0019
3259.00,0.0018
3246.00,0.0018
3233.00,0.0017
3220.00,0.0016
3207.00,0.0016
3194.00,0.0015
3181.00,0.0016
3168.00,0.0016
3155.00,0.0017
3142.00,0.0017
3129.00,0.0016
3116.00,0.0019
3103.00,0.0033
3090.00,0.0042
3077.00,0.0061
3064.00,0.0084
3051.00,0.0064
3038.00,0.0067
3025.00,0.0182
3012.00,0.0036
2999.00,-0.0025
2986.00,-0.0091
2973.00,-0.0112
2960.00,-0.0050
2947.00,0.0018
2934.00,0.0105
2921.00,0.0169
2908.00,0.0118
2895.00,0.0048
2882.00,0.0017
2869.00,0.0023
2856.00,0.0061
2843.00,0.0070
2830.00,0.0023
2817.00,0.0018
2804.00,0.0016
2791.00,0.0015
2778.00,0.0015
2765.00,0.0014
2752.00,0.0014
2739.00,0.0015
2726.00,0.0015
2713.00,0.0015
2700.00,0.0016
2687.00,0.0015
2674.00,0.0015
2661.00,0.0016
2648.00,0.0017
2635.00,0.0019
2622.00,0.0018
2609.00,0.0017
2596.00,0.0017
2583.00,0.0017
2570.00,0.0015
2557.00,0.0015
2544.00,0.0015
2531.00,0.0013
2518.00,0.0013
2505.00,0.0014
2492.00,0.0012
2479.00,0.0013
2466.00,0.0013
2453.00,0.0013
2440.00,0.0012
2427.00,0.0011
2414.00,0.0012
2401.00,0.0010
2388.00,0.0010
2375.00,0.0010
2362.00,0.0011
2349.00,0.0013
2336.00,0.0016
2323.00,0.0021
2310.00,0.0019
2297.00,0.0019
2284.00,0.0021
2271.00,0.0017
2258.00,0.0016
2245.00,0.0014
2232.00,0.0016
2219.00,0.0013
2206.00,0.0011
2193.00,0.0012
2180.00,0.0008
2167.00,0.0018
2154.00,-0.0008
2141.00,-0.0000
2128.00,0.0001
2115.00,0.0010
2102.00,0.0008
2089.00,0.0008
2076.00,0.0010
2063.00,0.0006
2050.00,0.0014
2037.00,0.0010
2024.00,0.0007
2011.00,0.0005
1998.00,0.0003
1985.00,0.0014
1972.00,0.0004
1959.00,0.0014
1946.00,0.0024
1933.00,0.0015
1920.00,0.0011
1907.00,0.0006
1894.00,0.0013
1881.00,0.0023
1868.00,0.0025
1855.00,0.0012
1842.00,0.0012
1829.00,0.0011
1816.00,0.0020
1803.00,0.0031
1790.00,0.0022
1777.00,0.0017
1764.00,0.0018
1751.00,0.0037
1738.00,0.0039
1725.00,0.0031
1712.00,0.0027
1699.00,0.0031
1686.00,0.0032
1673.00,0.0038
1660.00,0.0039
1647.00,0.0037
1634.00,0.0036
1621.00,0.0036
1608.00,0.0083
1595.00,0.0106
1582.00,0.0084
1569.00,0.0032
1556.00,0.0038
1543.00,0.0048
1530.00,0.0039
1517.00,0.0038
1504.00,0.0053
1491.00,0.0434
1478.00,0.0052
1465.00,0.0046
1452.00,0.0467
1439.00,0.0172
1426.00,0.0053
1413.00,0.0031
1400.00,0.0003
1387.00,0.0008
1374.00,0.0055
1361.00,0.0072
1348.00,0.0071
1335.00,0.0068
1322.00,0.0079
1309.00,0.0084
1296.00,0.0068
1283.00,0.0059
1270.00,0.0033
1257.00,0.0017
1244.00,0.0022
1231.00,0.0031
1218.00,0.0045
1205.00,0.0061
1192.00,0.0071
1179.00,0.0075
1166.00,0.0016
1153.00,0.0047
1140.00,0.0001
1127.00,0.0012
1114.00,0.0043
1101.00,0.0044
1088.00,0.0044
1075.00,0.0085
1062.00,0.0095
1049.00,0.0074
1036.00,0.0119
1023.00,0.0200
1010.00,0.0110
997.00,0.0089
984.00,0.0096
971.00,0.0061
958.00,0.0039
945.00,0.0041
932.00,0.0045
919.00,0.0075
906.00,0.0183
893.00,0.0070
880.00,0.0050
867.00,0.0047
854.00,0.0052
841.00,0.0092
828.00,0.0038
815.00,0.0036
802.00,0.0049
789.00,0.0095
776.00,0.0233
763.00,0.0601
750.00,0.0778
737.00,0.0334
724.00,0.0096
711.00,0.0210
698.00,0.2090
685.00,0.0773
672.00,0.0347
659.00,0.0209
646.00,0.0128
633.00,0.0142
620.00,0.0174
607.00,0.0128
594.00,0.0150
581.00,0.0189
568.00,0.0320
555.00,0.0475
542.00,0.0728
529.00,0.0530
516.00,0.0273
503.00,0.0182
490.00,0.0138
477.00,0.0118
464.00,0.0108
451.00,0.0103
438.00,0.0109
425.00,0.0071
412.00,0.0081
400.00,0.0183

File: 2025_07_01_Polystyrene_Std_MEL_scan1_After.csv
Created as New Dataset,Sample 757 By YargerLab Date Tuesday, July 01 2025
cm-1,A
4000.00,0.0006
3987.00,0.0006
3974.00,0.0007
3961.00,0.0007
3948.00,0.0010
3935.00,0.0008
3922.00,0.0008
3909.00,0.0007
3896.00,0.0009
3883.00,0.0010
3870.00,0.0012
3857.00,0.0008
3844.00,0.0010
3831.00,0.0010
3818.00,0.0012
3805.00,0.0009
3792.00,0.0008
3779.00,0.0008
3766.00,0.0010
3753.00,0.0014
3740.00,0.0017
3727.00,0.0014
3714.00,0.0011
3701.00,0.0008
3688.00,0.0008
3675.00,0.0002
3662.00,-0.0009
3649.00,0.0002
3636.00,-0.0001
3623.00,0.0011
3610.00,0.0016
3597.00,0.0012
3584.00,0.0013
3571.00,0.0012
3558.00,0.0011
3545.00,0.0014
3532.00,0.0013
3519.00,0.0013
3506.00,0.0015
3493.00,0.0014
3480.00,0.0015
3467.00,0.0015
3454.00,0.0015
3441.00,0.0016
3428.00,0.0017
3415.00,0.0018
3402.00,0.0018
3389.00,0.0018
3376.00,0.0019
3363.00,0.0020
3350.00,0.0020
3337.00,0.0019
3324.00,0.0020
3311.00,0.0020
3298.00,0.0020
3285.00,0.0020
3272.00,0.0019
3259.00,0.0018
3246.00,0.0018
3233.00,0.0016
3220.00,0.0016
3207.00,0.0015
3194.00,0.0015
3181.00,0.0014
3168.00,0.0014
3155.00,0.0014
3142.00,0.0015
3129.00,0.0013
3116.00,0.0016
3103.00,0.0026
3090.00,0.0033
3077.00,0.0047
3064.00,0.0065
3051.00,0.0049
3038.00,0.0051
3025.00,0.0140
3012.00,0.0025
2999.00,-0.0031
2986.00,-0.0088
2973.00,-0.0107
2960.00,-0.0051
2947.00,0.0006
2934.00,0.0075
2921.00,0.0123
2908.00,0.0085
2895.00,0.0030
2882.00,0.0007
2869.00,0.0014
2856.00,0.0045
2843.00,0.0053
2830.00,0.0017
2817.00,0.0013
2804.00,0.0013
2791.00,0.0012
2778.00,0.0011
2765.00,0.0010
2752.00,0.0011
2739.00,0.0011
2726.00,0.0011
2713.00,0.0012
2700.00,0.0012
2687.00,0.0011
2674.00,0.0011
2661.00,0.0012
2648.00,0.0013
2635.00,0.0014
2622.00,0.0013
2609.00,0.0013
2596.00,0.0013
2583.00,0.0013
2570.00,0.0010
2557.00,0.0011
2544.00,0.0011
2531.00,0.0010
2518.00,0.0009
2505.00,0.0010
2492.00,0.0010
2479.00,0.0009
2466.00,0.0009
2453.00,0.0011
2440.00,0.0009
2427.00,0.0009
2414.00,0.0008
2401.00,0.0007
2388.00,0.0007
2375.00,0.0007
2362.00,0.0009
2349.00,0.0010
2336.00,0.0011
2323.00,0.0017
2310.00,0.0014
2297.00,0.0013
2284.00,0.0015
2271.00,0.0012
2258.00,0.0012
2245.00,0.0012
2232.00,0.0011
2219.00,0.0009
2206.00,0.0009
2193.00,0.0010
2180.00,0.0009
2167.00,0.0017
2154.00,-0.0006
2141.00,-0.0001
2128.00,-0.0000
2115.00,0.0007
2102.00,0.0006
2089.00,0.0007
2076.00,0.0008
2063.00,0.0008
2050.00,0.0012
2037.00,0.0007
2024.00,0.0002
2011.00,0.0003
1998.00,0.0005
1985.00,0.0011
1972.00,0.0004
1959.00,0.0009
1946.00,0.0021
1933.00,0.0013
1920.00,0.0010
1907.00,0.0007
1894.00,0.0011
1881.00,0.0019
1868.00,0.0022
1855.00,0.0010
1842.00,0.0009
1829.00,0.0009
1816.00,0.0015
1803.00,0.0025
1790.00,0.0017
1777.00,0.0014
1764.00,0.0014
1751.00,0.0029
1738.00,0.0030
1725.00,0.0025
1712.00,0.0023
1699.00,0.0026
1686.00,0.0027
1673.00,0.0033
1660.00,0.0035
1647.00,0.0030
1634.00,0.0027
1621.00,0.0026
1608.00,0.0063
1595.00,0.0080
1582.00,0.0062
1569.00,0.0021
1556.00,0.0023
1543.00,0.0032
1530.00,0.0025
1517.00,0.0026
1504.00,0.0039
1491.00,0.0341
1478.00,0.0038
1465.00,0.0034
1452.00,0.0372
1439.00,0.0139
1426.00,0.0044
1413.00,0.0020
1400.00,-0.0005
1387.00,-0.0003
1374.00,0.0038
1361.00,0.0055
1348.00,0.0056
1335.00,0.0056
1322.00,0.0066
1309.00,0.0071
1296.00,0.0059
1283.00,0.0051
1270.00,0.0026
1257.00,0.0010
1244.00,0.0016
1231.00,0.0024
1218.00,0.0036
1205.00,0.0051
1192.00,0.0058
1179.00,0.0058
1166.00,0.0012
1153.00,0.0037
1140.00,-0.0002
1127.00,0.0009
1114.00,0.0037
1101.00,0.0041
1088.00,0.0039
1075.00,0.0075
1062.00,0.0088
1049.00,0.0077
1036.00,0.0111
1023.00,0.0181
1010.00,0.0106
997.00,0.0090
984.00,0.0095
971.00,0.0060
958.00,0.0038
945.00,0.0039
932.00,0.0043
919.00,0.0068
906.00,0.0158
893.00,0.0066
880.00,0.0049
867.00,0.0043
854.00,0.0047
841.00,0.0080
828.00,0.0034
815.00,0.0032
802.00,0.0041
789.00,0.0082
776.00,0.0194
763.00,0.0492
750.00,0.0631
737.00,0.0274
724.00,0.0083
711.00,0.0177
698.00,0.1671
685.00,0.0636
672.00,0.0289
659.00,0.0178
646.00,0.0114
633.00,0.0125
620.00,0.0150
607.00,0.0121
594.00,0.0132
581.00,0.0168
568.00,0.0272
555.00,0.0390
542.00,0.0611
529.00,0.0445
516.00,0.0230
503.00,0.0159
490.00,0.0121
477.00,0.0102
464.00,0.0093
451.00,0.0077
438.00,0.0084
425.00,0.0071
412.00,0.0059
400.00,0.0068

File: 2025_07_01_Polystyrene_Std_MEL_scan2.csv
Created as New Dataset,Sample 752 By YargerLab Date Sunday, June 29 2025
cm-1,A
4000.00,0.0008
3987.00,0.0008
3974.00,0.0009
3961.00,0.0009
3948.00,0.0012
3935.00,0.0011
3922.00,0.0010
3909.00,0.0009
3896.00,0.0011
3883.00,0.0012
3870.00,0.0015
3857.00,0.0010
3844.00,0.0012
3831.00,0.0012
3818.00,0.0013
3805.00,0.0012
3792.00,0.0010
3779.00,0.0010
3766.00,0.0012
3753.00,0.0017
3740.00,0.0020
3727.00,0.0017
3714.00,0.0013
3701.00,0.0010
3688.00,0.0011
3675.00,0.0004
3662.00,-0.0007
3649.00,0.0003
3636.00,0.0001
3623.00,0.0014
3610.00,0.0019
3597.00,0.0014
3584.00,0.0015
3571.00,0.0014
3558.00,0.0013
3545.00,0.0016
3532.00,0.0014
3519.00,0.0014
3506.00,0.0016
3493.00,0.0015
3480.00,0.0016
3467.00,0.0016
3454.00,0.0015
3441.00,0.0016
3428.00,0.0016
3415.00,0.0017
3402.00,0.0017
3389.00,0.0017
3376.00,0.0017
3363.00,0.0017
3350.00,0.0017
3337.00,0.0017
3324.00,0.0017
3311.00,0.0018
3298.00,0.0018
3285.00,0.0018
3272.00,0.0017
3259.00,0.0017
3246.00,0.0017
3233.00,0.0015
3220.00,0.0015
3207.00,0.0015
3194.00,0.0014
3181.00,0.0014
3168.00,0.0015
3155.00,0.0015
3142.00,0.0015
3129.00,0.0014
3116.00,0.0017
3103.00,0.0031
3090.00,0.0039
3077.00,0.0056
3064.00,0.0077
3051.00,0.0059
3038.00,0.0062
3025.00,0.0168
3012.00,0.0032
2999.00,-0.0029
2986.00,-0.0094
2973.00,-0.0115
2960.00,-0.0054
2947.00,0.0010
2934.00,0.0092
2921.00,0.0151
2908.00,0.0105
2895.00,0.0039
2882.00,0.0011
2869.00,0.0018
2856.00,0.0054
2843.00,0.0063
2830.00,0.0020
2817.00,0.0015
2804.00,0.0014
2791.00,0.0013
2778.00,0.0013
2765.00,0.0012
2752.00,0.0012
2739.00,0.0012
2726.00,0.0013
2713.00,0.0013
2700.00,0.0014
2687.00,0.0013
2674.00,0.0012
2661.00,0.0014
2648.00,0.0015
2635.00,0.0016
2622.00,0.0015
2609.00,0.0015
2596.00,0.0014
2583.00,0.0015
2570.00,0.0013
2557.00,0.0013
2544.00,0.0013
2531.00,0.0012
2518.00,0.0012
2505.00,0.0012
2492.00,0.0012
2479.00,0.0011
2466.00,0.0011
2453.00,0.0012
2440.00,0.0010
2427.00,0.0010
2414.00,0.0010
2401.00,0.0009
2388.00,0.0008
2375.00,0.0008
2362.00,0.0009
2349.00,0.0011
2336.00,0.0013
2323.00,0.0018
2310.00,0.0015
2297.00,0.0015
2284.00,0.0017
2271.00,0.0014
2258.00,0.0015
2245.00,0.0014
2232.00,0.0013
2219.00,0.0011
2206.00,0.0011
2193.00,0.0011
2180.00,0.0007
2167.00,0.0018
2154.00,-0.0004
2141.00,0.0001
2128.00,0.0001
2115.00,0.0010
2102.00,0.0007
2089.00,0.0008
2076.00,0.0009
2063.00,0.0007
2050.00,0.0014
2037.00,0.0009
2024.00,0.0003
2011.00,0.0008
1998.00,0.0007
1985.00,0.0012
1972.00,0.0005
1959.00,0.0012
1946.00,0.0024
1933.00,0.0017
1920.00,0.0011
1907.00,0.0008
1894.00,0.0013
1881.00,0.0022
1868.00,0.0026
1855.00,0.0013
1842.00,0.0012
1829.00,0.0011
1816.00,0.0018
1803.00,0.0030
1790.00,0.0021
1777.00,0.0016
1764.00,0.0017
1751.00,0.0035
1738.00,0.0036
1725.00,0.0028
1712.00,0.0025
1699.00,0.0029
1686.00,0.0030
1673.00,0.0036
1660.00,0.0037
1647.00,0.0036
1634.00,0.0034
1621.00,0.0034
1608.00,0.0077
1595.00,0.0099
1582.00,0.0079
1569.00,0.0031
1556.00,0.0036
1543.00,0.0047
1530.00,0.0037
1517.00,0.0036
1504.00,0.0050
1491.00,0.0406
1478.00,0.0048
1465.00,0.0042
1452.00,0.0434
1439.00,0.0160
1426.00,0.0048
1413.00,0.0027
1400.00,0.0001
1387.00,0.0003
1374.00,0.0047
1361.00,0.0066
1348.00,0.0066
1335.00,0.0063
1322.00,0.0074
1309.00,0.0078
1296.00,0.0063
1283.00,0.0054
1270.00,0.0029
1257.00,0.0014
1244.00,0.0019
1231.00,0.0027
1218.00,0.0042
1205.00,0.0057
1192.00,0.0066
1179.00,0.0068
1166.00,0.0012
1153.00,0.0040
1140.00,-0.0002
1127.00,0.0009
1114.00,0.0037
1101.00,0.0040
1088.00,0.0039
1075.00,0.0078
1062.00,0.0089
1049.00,0.0070
1036.00,0.0111
1023.00,0.0189
1010.00,0.0105
997.00,0.0085
984.00,0.0091
971.00,0.0055
958.00,0.0034
945.00,0.0036
932.00,0.0041
919.00,0.0069
906.00,0.0172
893.00,0.0066
880.00,0.0049
867.00,0.0044
854.00,0.0049
841.00,0.0088
828.00,0.0036
815.00,0.0032
802.00,0.0045
789.00,0.0090
776.00,0.0219
763.00,0.0565
750.00,0.0733
737.00,0.0316
724.00,0.0090
711.00,0.0198
698.00,0.1964
685.00,0.0736
672.00,0.0329
659.00,0.0198
646.00,0.0124
633.00,0.0137
620.00,0.0163
607.00,0.0127
594.00,0.0143
581.00,0.0183
568.00,0.0303
555.00,0.0428
542.00,0.0696
529.00,0.0505
516.00,0.0259
503.00,0.0175
490.00,0.0130
477.00,0.0108
464.00,0.0107
451.00,0.0084
438.00,0.0087
425.00,0.0086
412.00,0.0062
400.00,0.0096

File: 2025_07_01_Polystyrene_Std_MEL_scan2_After.csv
Created as New Dataset,Sample 758 By YargerLab Date Tuesday, July 01 2025
cm-1,A
4000.00,0.0004
3987.00,0.0005
3974.00,0.0005
3961.00,0.0005
3948.00,0.0008
3935.00,0.0007
3922.00,0.0007
3909.00,0.0005
3896.00,0.0008
3883.00,0.0008
3870.00,0.0010
3857.00,0.0006
3844.00,0.0009
3831.00,0.0008
3818.00,0.0009
3805.00,0.0007
3792.00,0.0006
3779.00,0.0006
3766.00,0.0009
3753.00,0.0012
3740.00,0.0015
3727.00,0.0012
3714.00,0.0010
3701.00,0.0007
3688.00,0.0006
3675.00,-0.0000
3662.00,-0.0009
3649.00,-0.0000
3636.00,-0.0001
3623.00,0.0011
3610.00,0.0017
3597.00,0.0013
3584.00,0.0014
3571.00,0.0015
3558.00,0.0015
3545.00,0.0019
3532.00,0.0018
3519.00,0.0019
3506.00,0.0021
3493.00,0.0022
3480.00,0.0024
3467.00,0.0025
3454.00,0.0026
3441.00,0.0028
3428.00,0.0030
3415.00,0.0031
3402.00,0.0033
3389.00,0.0034
3376.00,0.0035
3363.00,0.0037
3350.00,0.0038
3337.00,0.0038
3324.00,0.0037
3311.00,0.0038
3298.00,0.0037
3285.00,0.0037
3272.00,0.0036
3259.00,0.0033
3246.00,0.0032
3233.00,0.0029
3220.00,0.0027
3207.00,0.0025
3194.00,0.0024
3181.00,0.0022
3168.00,0.0021
3155.00,0.0021
3142.00,0.0020
3129.00,0.0019
3116.00,0.0020
3103.00,0.0027
3090.00,0.0031
3077.00,0.0042
3064.00,0.0053
3051.00,0.0042
3038.00,0.0042
3025.00,0.0107
3012.00,0.0019
2999.00,-0.0037
2986.00,-0.0090
2973.00,-0.0109
2960.00,-0.0056
2947.00,-0.0004
2934.00,0.0048
2921.00,0.0084
2908.00,0.0059
2895.00,0.0017
2882.00,-0.0000
2869.00,0.0010
2856.00,0.0033
2843.00,0.0042
2830.00,0.0016
2817.00,0.0013
2804.00,0.0012
2791.00,0.0011
2778.00,0.0011
2765.00,0.0010
2752.00,0.0010
2739.00,0.0011
2726.00,0.0011
2713.00,0.0011
2700.00,0.0011
2687.00,0.0011
2674.00,0.0010
2661.00,0.0011
2648.00,0.0012
2635.00,0.0013
2622.00,0.0012
2609.00,0.0011
2596.00,0.0011
2583.00,0.0012
2570.00,0.0010
2557.00,0.0011
2544.00,0.0010
2531.00,0.0010
2518.00,0.0009
2505.00,0.0009
2492.00,0.0010
2479.00,0.0008
2466.00,0.0009
2453.00,0.0009
2440.00,0.0008
2427.00,0.0008
2414.00,0.0007
2401.00,0.0007
2388.00,0.0007
2375.00,0.0007
2362.00,0.0010
2349.00,0.0010
2336.00,0.0010
2323.00,0.0018
2310.00,0.0014
2297.00,0.0014
2284.00,0.0015
2271.00,0.0011
2258.00,0.0013
2245.00,0.0011
2232.00,0.0009
2219.00,0.0008
2206.00,0.0007
2193.00,0.0008
2180.00,0.0006
2167.00,0.0017
2154.00,-0.0004
2141.00,-0.0002
2128.00,-0.0001
2115.00,0.0007
2102.00,0.0006
2089.00,0.0005
2076.00,0.0007
2063.00,0.0005
2050.00,0.0014
2037.00,0.0010
2024.00,0.0000
2011.00,0.0002
1998.00,0.0001
1985.00,0.0010
1972.00,0.0001
1959.00,0.0004
1946.00,0.0014
1933.00,0.0010
1920.00,0.0008
1907.00,0.0005
1894.00,0.0008
1881.00,0.0014
1868.00,0.0016
1855.00,0.0008
1842.00,0.0008
1829.00,0.0008
1816.00,0.0011
1803.00,0.0018
1790.00,0.0015
1777.00,0.0011
1764.00,0.0011
1751.00,0.0025
1738.00,0.0024
1725.00,0.0021
1712.00,0.0021
1699.00,0.0026
1686.00,0.0028
1673.00,0.0035
1660.00,0.0039
1647.00,0.0038
1634.00,0.0034
1621.00,0.0031
1608.00,0.0056
1595.00,0.0069
1582.00,0.0054
1569.00,0.0023
1556.00,0.0026
1543.00,0.0033
1530.00,0.0027
1517.00,0.0031
1504.00,0.0039
1491.00,0.0257
1478.00,0.0034
1465.00,0.0033
1452.00,0.0275
1439.00,0.0114
1426.00,0.0046
1413.00,0.0025
1400.00,-0.0001
1387.00,-0.0004
1374.00,0.0031
1361.00,0.0050
1348.00,0.0051
1335.00,0.0055
1322.00,0.0065
1309.00,0.0069
1296.00,0.0057
1283.00,0.0051
1270.00,0.0030
1257.00,0.0015
1244.00,0.0020
1231.00,0.0027
1218.00,0.0038
1205.00,0.0051
1192.00,0.0051
1179.00,0.0048
1166.00,0.0017
1153.00,0.0034
1140.00,0.0009
1127.00,0.0025
1114.00,0.0057
1101.00,0.0063
1088.00,0.0056
1075.00,0.0084
1062.00,0.0108
1049.00,0.0107
1036.00,0.0137
1023.00,0.0189
1010.00,0.0130
997.00,0.0115
984.00,0.0115
971.00,0.0070
958.00,0.0042
945.00,0.0040
932.00,0.0047
919.00,0.0068
906.00,0.0134
893.00,0.0069
880.00,0.0054
867.00,0.0050
854.00,0.0050
841.00,0.0074
828.00,0.0040
815.00,0.0038
802.00,0.0047
789.00,0.0077
776.00,0.0159
763.00,0.0369
750.00,0.0471
737.00,0.0222
724.00,0.0086
711.00,0.0156
698.00,0.1168
685.00,0.0493
672.00,0.0246
659.00,0.0167
646.00,0.0120
633.00,0.0130
620.00,0.0153
607.00,0.0131
594.00,0.0142
581.00,0.0167
568.00,0.0248
555.00,0.0337
542.00,0.0491
529.00,0.0377
516.00,0.0220
503.00,0.0166
490.00,0.0136
477.00,0.0117
464.00,0.0113
451.00,0.0107
438.00,0.0112
425.00,0.0090
412.00,0.0074
400.00,0.0091

File: 2025_07_01_Polystyrene_Std_MEL_scan3.csv
Created as New Dataset,Sample 753 By YargerLab Date Tuesday, July 01 2025
cm-1,A
4000.00,0.0008
3987.00,0.0008
3974.00,0.0009
3961.00,0.0009
3948.00,0.0011
3935.00,0.0011
3922.00,0.0010
3909.00,0.0008
3896.00,0.0011
3883.00,0.0012
3870.00,0.0014
3857.00,0.0009
3844.00,0.0012
3831.00,0.0012
3818.00,0.0012
3805.00,0.0011
3792.00,0.0008
3779.00,0.0009
3766.00,0.0012
3753.00,0.0016
3740.00,0.0019
3727.00,0.0016
3714.00,0.0013
3701.00,0.0009
3688.00,0.0009
3675.00,0.0002
3662.00,-0.0008
3649.00,0.0001
3636.00,-0.0000
3623.00,0.0013
3610.00,0.0018
3597.00,0.0014
3584.00,0.0015
3571.00,0.0015
3558.00,0.0013
3545.00,0.0016
3532.00,0.0014
3519.00,0.0016
3506.00,0.0016
3493.00,0.0016
3480.00,0.0017
3467.00,0.0017
3454.00,0.0017
3441.00,0.0018
3428.00,0.0018
3415.00,0.0019
3402.00,0.0020
3389.00,0.0021
3376.00,0.0021
3363.00,0.0021
3350.00,0.0022
3337.00,0.0023
3324.00,0.0022
3311.00,0.0023
3298.00,0.0022
3285.00,0.0022
3272.00,0.0022
3259.00,0.0021
3246.00,0.0020
3233.00,0.0018
3220.00,0.0018
3207.00,0.0017
3194.00,0.0016
3181.00,0.0015
3168.00,0.0016
3155.00,0.0016
3142.00,0.0016
3129.00,0.0015
3116.00,0.0018
3103.00,0.0029
3090.00,0.0036
3077.00,0.0052
3064.00,0.0069
3051.00,0.0054
3038.00,0.0055
3025.00,0.0148
3012.00,0.0027
2999.00,-0.0034
2986.00,-0.0096
2973.00,-0.0117
2960.00,-0.0058
2947.00,0.0003
2934.00,0.0075
2921.00,0.0127
2908.00,0.0087
2895.00,0.0028
2882.00,0.0004
2869.00,0.0013
2856.00,0.0045
2843.00,0.0054
2830.00,0.0018
2817.00,0.0014
2804.00,0.0013
2791.00,0.0012
2778.00,0.0012
2765.00,0.0011
2752.00,0.0012
2739.00,0.0012
2726.00,0.0012
2713.00,0.0013
2700.00,0.0013
2687.00,0.0012
2674.00,0.0011
2661.00,0.0013
2648.00,0.0014
2635.00,0.0016
2622.00,0.0015
2609.00,0.0014
2596.00,0.0014
2583.00,0.0014
2570.00,0.0012
2557.00,0.0012
2544.00,0.0013
2531.00,0.0012
2518.00,0.0011
2505.00,0.0011
2492.00,0.0012
2479.00,0.0011
2466.00,0.0010
2453.00,0.0012
2440.00,0.0010
2427.00,0.0010
2414.00,0.0009
2401.00,0.0009
2388.00,0.0008
2375.00,0.0007
2362.00,0.0008
2349.00,0.0010
2336.00,0.0011
2323.00,0.0017
2310.00,0.0015
2297.00,0.0014
2284.00,0.0017
2271.00,0.0014
2258.00,0.0014
2245.00,0.0014
2232.00,0.0014
2219.00,0.0010
2206.00,0.0012
2193.00,0.0012
2180.00,0.0007
2167.00,0.0019
2154.00,-0.0005
2141.00,0.0001
2128.00,0.0001
2115.00,0.0010
2102.00,0.0009
2089.00,0.0007
2076.00,0.0010
2063.00,0.0007
2050.00,0.0013
2037.00,0.0012
2024.00,0.0005
2011.00,0.0005
1998.00,0.0007
1985.00,0.0013
1972.00,0.0004
1959.00,0.0011
1946.00,0.0022
1933.00,0.0015
1920.00,0.0011
1907.00,0.0007
1894.00,0.0011
1881.00,0.0019
1868.00,0.0022
1855.00,0.0012
1842.00,0.0010
1829.00,0.0009
1816.00,0.0016
1803.00,0.0025
1790.00,0.0018
1777.00,0.0014
1764.00,0.0015
1751.00,0.0031
1738.00,0.0032
1725.00,0.0026
1712.00,0.0022
1699.00,0.0027
1686.00,0.0027
1673.00,0.0032
1660.00,0.0033
1647.00,0.0032
1634.00,0.0031
1621.00,0.0030
1608.00,0.0067
1595.00,0.0085
1582.00,0.0068
1569.00,0.0027
1556.00,0.0031
1543.00,0.0040
1530.00,0.0031
1517.00,0.0030
1504.00,0.0041
1491.00,0.0344
1478.00,0.0038
1465.00,0.0032
1452.00,0.0364
1439.00,0.0134
1426.00,0.0040
1413.00,0.0020
1400.00,-0.0006
1387.00,-0.0006
1374.00,0.0034
1361.00,0.0053
1348.00,0.0055
1335.00,0.0055
1322.00,0.0065
1309.00,0.0070
1296.00,0.0055
1283.00,0.0048
1270.00,0.0023
1257.00,0.0008
1244.00,0.0013
1231.00,0.0022
1218.00,0.0035
1205.00,0.0049
1192.00,0.0055
1179.00,0.0054
1166.00,0.0007
1153.00,0.0029
1140.00,-0.0007
1127.00,0.0006
1114.00,0.0036
1101.00,0.0037
1088.00,0.0033
1075.00,0.0068
1062.00,0.0084
1049.00,0.0071
1036.00,0.0107
1023.00,0.0174
1010.00,0.0100
997.00,0.0082
984.00,0.0086
971.00,0.0047
958.00,0.0025
945.00,0.0027
932.00,0.0034
919.00,0.0061
906.00,0.0149
893.00,0.0059
880.00,0.0043
867.00,0.0038
854.00,0.0042
841.00,0.0075
828.00,0.0030
815.00,0.0028
802.00,0.0037
789.00,0.0077
776.00,0.0186
763.00,0.0473
750.00,0.0607
737.00,0.0264
724.00,0.0080
711.00,0.0172
698.00,0.1577
685.00,0.0610
672.00,0.0278
659.00,0.0170
646.00,0.0109
633.00,0.0121
620.00,0.0147
607.00,0.0115
594.00,0.0129
581.00,0.0161
568.00,0.0263
555.00,0.0380
542.00,0.0587
529.00,0.0426
516.00,0.0220
503.00,0.0151
490.00,0.0116
477.00,0.0092
464.00,0.0092
451.00,0.0077
438.00,0.0075
425.00,0.0064
412.00,0.0052
400.00,0.0071

File: 2025_07_01_Polystyrene_Std_MEL_scan3_After.csv
Created as New Dataset,Sample 759 By YargerLab Date Tuesday, July 01 2025
cm-1,A
4000.00,0.0007
3987.00,0.0007
3974.00,0.0008
3961.00,0.0008
3948.00,0.0009
3935.00,0.0009
3922.00,0.0008
3909.00,0.0007
3896.00,0.0010
3883.00,0.0011
3870.00,0.0013
3857.00,0.0008
3844.00,0.0010
3831.00,0.0011
3818.00,0.0012
3805.00,0.0010
3792.00,0.0008
3779.00,0.0008
3766.00,0.0010
3753.00,0.0015
3740.00,0.0017
3727.00,0.0014
3714.00,0.0012
3701.00,0.0008
3688.00,0.0008
3675.00,0.0002
3662.00,-0.0008
3649.00,0.0003
3636.00,0.0001
3623.00,0.0013
3610.00,0.0018
3597.00,0.0015
3584.00,0.0017
3571.00,0.0017
3558.00,0.0017
3545.00,0.0021
3532.00,0.0020
3519.00,0.0022
3506.00,0.0024
3493.00,0.0025
3480.00,0.0026
3467.00,0.0028
3454.00,0.0030
3441.00,0.0031
3428.00,0.0034
3415.00,0.0035
3402.00,0.0037
3389.00,0.0038
3376.00,0.0039
3363.00,0.0041
3350.00,0.0043
3337.00,0.0043
3324.00,0.0042
3311.00,0.0042
3298.00,0.0042
3285.00,0.0041
3272.00,0.0040
3259.00,0.0038
3246.00,0.0036
3233.00,0.0032
3220.00,0.0031
3207.00,0.0029
3194.00,0.0027
3181.00,0.0026
3168.00,0.0024
3155.00,0.0024
3142.00,0.0023
3129.00,0.0022
3116.00,0.0024
3103.00,0.0033
3090.00,0.0039
3077.00,0.0053
3064.00,0.0068
3051.00,0.0053
3038.00,0.0054
3025.00,0.0140
3012.00,0.0028
2999.00,-0.0028
2986.00,-0.0085
2973.00,-0.0104
2960.00,-0.0048
2947.00,0.0009
2934.00,0.0076
2921.00,0.0123
2908.00,0.0089
2895.00,0.0036
2882.00,0.0013
2869.00,0.0021
2856.00,0.0048
2843.00,0.0056
2830.00,0.0021
2817.00,0.0017
2804.00,0.0016
2791.00,0.0015
2778.00,0.0015
2765.00,0.0014
2752.00,0.0014
2739.00,0.0013
2726.00,0.0014
2713.00,0.0014
2700.00,0.0014
2687.00,0.0013
2674.00,0.0013
2661.00,0.0014
2648.00,0.0015
2635.00,0.0016
2622.00,0.0015
2609.00,0.0015
2596.00,0.0015
2583.00,0.0015
2570.00,0.0013
2557.00,0.0013
2544.00,0.0013
2531.00,0.0012
2518.00,0.0011
2505.00,0.0012
2492.00,0.0011
2479.00,0.0010
2466.00,0.0011
2453.00,0.0011
2440.00,0.0010
2427.00,0.0009
2414.00,0.0009
2401.00,0.0009
2388.00,0.0008
2375.00,0.0006
2362.00,0.0009
2349.00,0.0010
2336.00,0.0011
2323.00,0.0016
2310.00,0.0013
2297.00,0.0013
2284.00,0.0016
2271.00,0.0013
2258.00,0.0013
2245.00,0.0014
2232.00,0.0012
2219.00,0.0010
2206.00,0.0010
2193.00,0.0012
2180.00,0.0009
2167.00,0.0018
2154.00,-0.0005
2141.00,-0.0000
2128.00,-0.0000
2115.00,0.0009
2102.00,0.0006
2089.00,0.0008
2076.00,0.0009
2063.00,0.0006
2050.00,0.0013
2037.00,0.0009
2024.00,0.0005
2011.00,0.0007
1998.00,0.0005
1985.00,0.0012
1972.00,0.0003
1959.00,0.0008
1946.00,0.0019
1933.00,0.0012
1920.00,0.0009
1907.00,0.0006
1894.00,0.0011
1881.00,0.0017
1868.00,0.0020
1855.00,0.0011
1842.00,0.0009
1829.00,0.0009
1816.00,0.0015
1803.00,0.0024
1790.00,0.0017
1777.00,0.0014
1764.00,0.0015
1751.00,0.0029
1738.00,0.0029
1725.00,0.0026
1712.00,0.0025
1699.00,0.0029
1686.00,0.0032
1673.00,0.0041
1660.00,0.0045
1647.00,0.0042
1634.00,0.0038
1621.00,0.0035
1608.00,0.0067
1595.00,0.0084
1582.00,0.0066
1569.00,0.0027
1556.00,0.0030
1543.00,0.0038
1530.00,0.0032
1517.00,0.0034
1504.00,0.0046
1491.00,0.0319
1478.00,0.0043
1465.00,0.0042
1452.00,0.0342
1439.00,0.0139
1426.00,0.0055
1413.00,0.0032
1400.00,0.0005
1387.00,0.0005
1374.00,0.0046
1361.00,0.0063
1348.00,0.0064
1335.00,0.0067
1322.00,0.0077
1309.00,0.0082
1296.00,0.0068
1283.00,0.0061
1270.00,0.0039
1257.00,0.0022
1244.00,0.0026
1231.00,0.0034
1218.00,0.0046
1205.00,0.0060
1192.00,0.0062
1179.00,0.0061
1166.00,0.0027
1153.00,0.0050
1140.00,0.0015
1127.00,0.0032
1114.00,0.0068
1101.00,0.0073
1088.00,0.0067
1075.00,0.0102
1062.00,0.0127
1049.00,0.0121
1036.00,0.0155
1023.00,0.0217
1010.00,0.0147
997.00,0.0129
984.00,0.0129
971.00,0.0081
958.00,0.0054
945.00,0.0051
932.00,0.0054
919.00,0.0077
906.00,0.0156
893.00,0.0077
880.00,0.0059
867.00,0.0055
854.00,0.0056
841.00,0.0085
828.00,0.0044
815.00,0.0043
802.00,0.0052
789.00,0.0088
776.00,0.0185
763.00,0.0435
750.00,0.0556
737.00,0.0260
724.00,0.0097
711.00,0.0180
698.00,0.1376
685.00,0.0568
672.00,0.0280
659.00,0.0190
646.00,0.0136
633.00,0.0149
620.00,0.0172
607.00,0.0148
594.00,0.0161
581.00,0.0191
568.00,0.0282
555.00,0.0384
542.00,0.0568
529.00,0.0431
516.00,0.0247
503.00,0.0180
490.00,0.0149
477.00,0.0135
464.00,0.0126
451.00,0.0109
438.00,0.0119
425.00,0.0092
412.00,0.0092
400.00,0.0107