Folder: Data/FTIR/Mary/Jul3

Note: FTIR/README
YargerLab FT-IR Data Repo

File: 2025_07_03_Polystyrene_Std_MEL_Scan1.csv
Created as New Dataset,Sample 760 By YargerLab Date Tuesday, July 01 2025
cm-1,A
4000.00,0.0018
3987.00,0.0018
3974.00,0.0018
3961.00,0.0018
3948.00,0.0019
3935.00,0.0020
3922.00,0.0020
3909.00,0.0018
3896.00,0.0021
3883.00,0.0021
3870.00,0.0025
3857.00,0.0020
3844.00,0.0022
3831.00,0.0024
3818.00,0.0025
3805.00,0.0024
3792.00,0.0019
3779.00,0.0019
3766.00,0.0022
3753.00,0.0026
3740.00,0.0029
3727.00,0.0025
3714.00,0.0023
3701.00,0.0019
3688.00,0.0024
3675.00,0.0025
3662.00,0.0020
3649.00,0.0030
3636.00,0.0022
3623.00,0.0026
3610.00,0.0031
3597.00,0.0025
3584.00,0.0026
3571.00,0.0026
3558.00,0.0026
3545.00,0.0029
3532.00,0.0029
3519.00,0.0029
3506.00,0.0030
3493.00,0.0031
3480.00,0.0032
3467.00,0.0031
3454.00,0.0032
3441.00,0.0034
3428.00,0.0032
3415.00,0.0033
3402.00,0.0034
3389.00,0.0033
3376.00,0.0033
3363.00,0.0033
3350.00,0.0032
3337.00,0.0031
3324.00,0.0031
3311.00,0.0031
3298.00,0.0030
3285.00,0.0030
3272.00,0.0030
3259.00,0.0029
3246.00,0.0029
3233.00,0.0028
3220.00,0.0027
3207.00,0.0027
3194.00,0.0026
3181.00,0.0025
3168.00,0.0025
3155.00,0.0025
3142.00,0.0023
3129.00,0.0023
3116.00,0.0026
3103.00,0.0036
3090.00,0.0043
3077.00,0.0058
3064.00,0.0074
3051.00,0.0060
3038.00,0.0061
3025.00,0.0154
3012.00,0.0052
2999.00,0.0050
2986.00,0.0032
2973.00,0.0034
2960.00,0.0045
2947.00,0.0072
2934.00,0.0135
2921.00,0.0186
2908.00,0.0145
2895.00,0.0091
2882.00,0.0067
2869.00,0.0056
2856.00,0.0077
2843.00,0.0074
2830.00,0.0033
2817.00,0.0026
2804.00,0.0025
2791.00,0.0023
2778.00,0.0023
2765.00,0.0021
2752.00,0.0020
2739.00,0.0020
2726.00,0.0020
2713.00,0.0020
2700.00,0.0020
2687.00,0.0020
2674.00,0.0020
2661.00,0.0022
2648.00,0.0023
2635.00,0.0023
2622.00,0.0021
2609.00,0.0021
2596.00,0.0020
2583.00,0.0019
2570.00,0.0017
2557.00,0.0016
2544.00,0.0015
2531.00,0.0015
2518.00,0.0015
2505.00,0.0014
2492.00,0.0014
2479.00,0.0013
2466.00,0.0013
2453.00,0.0014
2440.00,0.0012
2427.00,0.0011
2414.00,0.0011
2401.00,0.0009
2388.00,0.0010
2375.00,0.0009
2362.00,0.0011
2349.00,0.0012
2336.00,0.0015
2323.00,0.0021
2310.00,0.0017
2297.00,0.0017
2284.00,0.0019
2271.00,0.0014
2258.00,0.0014
2245.00,0.0010
2232.00,0.0010
2219.00,0.0012
2206.00,0.0011
2193.00,0.0011
2180.00,0.0005
2167.00,0.0016
2154.00,-0.0010
2141.00,-0.0005
2128.00,-0.0001
2115.00,0.0007
2102.00,0.0007
2089.00,0.0008
2076.00,0.0009
2063.00,0.0006
2050.00,0.0014
2037.00,0.0008
2024.00,0.0004
2011.00,-0.0003
1998.00,0.0004
1985.00,0.0014
1972.00,0.0003
1959.00,0.0007
1946.00,0.0020
1933.00,0.0014
1920.00,0.0008
1907.00,0.0008
1894.00,0.0012
1881.00,0.0020
1868.00,0.0023
1855.00,0.0013
1842.00,0.0013
1829.00,0.0013
1816.00,0.0018
1803.00,0.0029
1790.00,0.0024
1777.00,0.0022
1764.00,0.0024
1751.00,0.0039
1738.00,0.0044
1725.00,0.0038
1712.00,0.0035
1699.00,0.0033
1686.00,0.0032
1673.00,0.0037
1660.00,0.0034
1647.00,0.0032
1634.00,0.0030
1621.00,0.0032
1608.00,0.0070
1595.00,0.0089
1582.00,0.0071
1569.00,0.0027
1556.00,0.0031
1543.00,0.0037
1530.00,0.0029
1517.00,0.0029
1504.00,0.0046
1491.00,0.0371
1478.00,0.0058
1465.00,0.0062
1452.00,0.0408
1439.00,0.0158
1426.00,0.0059
1413.00,0.0047
1400.00,0.0047
1387.00,0.0068
1374.00,0.0097
1361.00,0.0091
1348.00,0.0083
1335.00,0.0077
1322.00,0.0081
1309.00,0.0083
1296.00,0.0068
1283.00,0.0064
1270.00,0.0056
1257.00,0.0053
1244.00,0.0054
1231.00,0.0052
1218.00,0.0052
1205.00,0.0063
1192.00,0.0076
1179.00,0.0095
1166.00,0.0065
1153.00,0.0103
1140.00,0.0053
1127.00,0.0051
1114.00,0.0067
1101.00,0.0071
1088.00,0.0086
1075.00,0.0125
1062.00,0.0124
1049.00,0.0091
1036.00,0.0118
1023.00,0.0188
1010.00,0.0112
997.00,0.0091
984.00,0.0099
971.00,0.0095
958.00,0.0089
945.00,0.0086
932.00,0.0065
919.00,0.0074
906.00,0.0168
893.00,0.0067
880.00,0.0053
867.00,0.0047
854.00,0.0048
841.00,0.0089
828.00,0.0046
815.00,0.0047
802.00,0.0054
789.00,0.0091
776.00,0.0208
763.00,0.0533
750.00,0.0699
737.00,0.0304
724.00,0.0095
711.00,0.0194
698.00,0.1832
685.00,0.0739
672.00,0.0328
659.00,0.0203
646.00,0.0132
633.00,0.0144
620.00,0.0171
607.00,0.0135
594.00,0.0151
581.00,0.0188
568.00,0.0309
555.00,0.0436
542.00,0.0694
529.00,0.0511
516.00,0.0264
503.00,0.0190
490.00,0.0151
477.00,0.0139
464.00,0.0127
451.00,0.0120
438.00,0.0115
425.00,0.0109
412.00,0.0098
400.00,0.0089

File: 2025_07_03_Polystyrene_Std_MEL_Scan2.csv
Created as New Dataset,Sample 761 By YargerLab Date Thursday, July 03 2025
cm-1,A
4000.00,0.0016
3987.00,0.0016
3974.00,0.0016
3961.00,0.0016
3948.00,0.0017
3935.00,0.0017
3922.00,0.0018
3909.00,0.0016
3896.00,0.0018
3883.00,0.0018
3870.00,0.0021
3857.00,0.0017
3844.00,0.0019
3831.00,0.0021
3818.00,0.0021
3805.00,0.0020
3792.00,0.0017
3779.00,0.0016
3766.00,0.0019
3753.00,0.0023
3740.00,0.0026
3727.00,0.0022
3714.00,0.0019
3701.00,0.0016
3688.00,0.0020
3675.00,0.0021
3662.00,0.0016
3649.00,0.0025
3636.00,0.0019
3623.00,0.0021
3610.00,0.0023
3597.00,0.0019
3584.00,0.0020
3571.00,0.0019
3558.00,0.0019
3545.00,0.0021
3532.00,0.0019
3519.00,0.0019
3506.00,0.0019
3493.00,0.0019
3480.00,0.0019
3467.00,0.0018
3454.00,0.0017
3441.00,0.0017
3428.00,0.0016
3415.00,0.0016
3402.00,0.0015
3389.00,0.0015
3376.00,0.0013
3363.00,0.0013
3350.00,0.0012
3337.00,0.0011
3324.00,0.0011
3311.00,0.0011
3298.00,0.0011
3285.00,0.0011
3272.00,0.0011
3259.00,0.0011
3246.00,0.0012
3233.00,0.0012
3220.00,0.0012
3207.00,0.0013
3194.00,0.0012
3181.00,0.0012
3168.00,0.0012
3155.00,0.0013
3142.00,0.0013
3129.00,0.0013
3116.00,0.0015
3103.00,0.0022
3090.00,0.0027
3077.00,0.0037
3064.00,0.0047
3051.00,0.0039
3038.00,0.0040
3025.00,0.0101
3012.00,0.0034
2999.00,0.0033
2986.00,0.0020
2973.00,0.0021
2960.00,0.0027
2947.00,0.0044
2934.00,0.0084
2921.00,0.0118
2908.00,0.0090
2895.00,0.0055
2882.00,0.0039
2869.00,0.0033
2856.00,0.0047
2843.00,0.0047
2830.00,0.0020
2817.00,0.0016
2804.00,0.0016
2791.00,0.0014
2778.00,0.0015
2765.00,0.0014
2752.00,0.0014
2739.00,0.0013
2726.00,0.0013
2713.00,0.0013
2700.00,0.0013
2687.00,0.0013
2674.00,0.0013
2661.00,0.0015
2648.00,0.0016
2635.00,0.0017
2622.00,0.0015
2609.00,0.0014
2596.00,0.0014
2583.00,0.0012
2570.00,0.0011
2557.00,0.0010
2544.00,0.0011
2531.00,0.0010
2518.00,0.0009
2505.00,0.0009
2492.00,0.0009
2479.00,0.0008
2466.00,0.0009
2453.00,0.0010
2440.00,0.0008
2427.00,0.0007
2414.00,0.0006
2401.00,0.0005
2388.00,0.0005
2375.00,0.0004
2362.00,0.0003
2349.00,-0.0001
2336.00,0.0006
2323.00,0.0015
2310.00,0.0011
2297.00,0.0012
2284.00,0.0015
2271.00,0.0011
2258.00,0.0008
2245.00,0.0008
2232.00,0.0009
2219.00,0.0006
2206.00,0.0007
2193.00,0.0007
2180.00,0.0001
2167.00,0.0012
2154.00,-0.0012
2141.00,-0.0007
2128.00,-0.0003
2115.00,0.0004
2102.00,0.0003
2089.00,0.0005
2076.00,0.0005
2063.00,0.0004
2050.00,0.0012
2037.00,0.0007
2024.00,-0.0002
2011.00,-0.0003
1998.00,0.0001
1985.00,0.0011
1972.00,0.0002
1959.00,0.0001
1946.00,0.0011
1933.00,0.0007
1920.00,0.0006
1907.00,0.0002
1894.00,0.0007
1881.00,0.0012
1868.00,0.0014
1855.00,0.0008
1842.00,0.0008
1829.00,0.0006
1816.00,0.0010
1803.00,0.0019
1790.00,0.0016
1777.00,0.0013
1764.00,0.0015
1751.00,0.0027
1738.00,0.0027
1725.00,0.0022
1712.00,0.0022
1699.00,0.0021
1686.00,0.0018
1673.00,0.0022
1660.00,0.0019
1647.00,0.0020
1634.00,0.0018
1621.00,0.0020
1608.00,0.0043
1595.00,0.0057
1582.00,0.0045
1569.00,0.0018
1556.00,0.0021
1543.00,0.0027
1530.00,0.0020
1517.00,0.0020
1504.00,0.0031
1491.00,0.0252
1478.00,0.0037
1465.00,0.0037
1452.00,0.0265
1439.00,0.0099
1426.00,0.0030
1413.00,0.0024
1400.00,0.0027
1387.00,0.0039
1374.00,0.0056
1361.00,0.0052
1348.00,0.0047
1335.00,0.0041
1322.00,0.0043
1309.00,0.0044
1296.00,0.0036
1283.00,0.0033
1270.00,0.0027
1257.00,0.0026
1244.00,0.0027
1231.00,0.0027
1218.00,0.0028
1205.00,0.0035
1192.00,0.0046
1179.00,0.0059
1166.00,0.0033
1153.00,0.0059
1140.00,0.0027
1127.00,0.0023
1114.00,0.0029
1101.00,0.0030
1088.00,0.0041
1075.00,0.0065
1062.00,0.0058
1049.00,0.0033
1036.00,0.0049
1023.00,0.0100
1010.00,0.0050
997.00,0.0036
984.00,0.0044
971.00,0.0050
958.00,0.0050
945.00,0.0050
932.00,0.0036
919.00,0.0044
906.00,0.0109
893.00,0.0036
880.00,0.0026
867.00,0.0024
854.00,0.0024
841.00,0.0053
828.00,0.0022
815.00,0.0022
802.00,0.0027
789.00,0.0055
776.00,0.0137
763.00,0.0365
750.00,0.0486
737.00,0.0206
724.00,0.0054
711.00,0.0122
698.00,0.1264
685.00,0.0534
672.00,0.0222
659.00,0.0126
646.00,0.0071
633.00,0.0081
620.00,0.0097
607.00,0.0072
594.00,0.0081
581.00,0.0109
568.00,0.0199
555.00,0.0291
542.00,0.0486
529.00,0.0360
516.00,0.0168
503.00,0.0116
490.00,0.0088
477.00,0.0086
464.00,0.0072
451.00,0.0070
438.00,0.0061
425.00,0.0063
412.00,0.0072
400.00,0.0058

File: 2025_07_03_Polystyrene_Std_MEL_Scan3.csv
Created as New Dataset,Sample 762 By YargerLab Date Thursday, July 03 2025
cm-1,A
4000.00,0.0024
3987.00,0.0023
3974.00,0.0023
3961.00,0.0023
3948.00,0.0024
3935.00,0.0024
3922.00,0.0025
3909.00,0.0023
3896.00,0.0026
3883.00,0.0026
3870.00,0.0029
3857.00,0.0024
3844.00,0.0027
3831.00,0.0029
3818.00,0.0030
3805.00,0.0029
3792.00,0.0025
3779.00,0.0025
3766.00,0.0028
3753.00,0.0032
3740.00,0.0033
3727.00,0.0030
3714.00,0.0028
3701.00,0.0023
3688.00,0.0028
3675.00,0.0030
3662.00,0.0024
3649.00,0.0033
3636.00,0.0027
3623.00,0.0030
3610.00,0.0033
3597.00,0.0029
3584.00,0.0030
3571.00,0.0030
3558.00,0.0031
3545.00,0.0033
3532.00,0.0033
3519.00,0.0034
3506.00,0.0035
3493.00,0.0036
3480.00,0.0038
3467.00,0.0038
3454.00,0.0039
3441.00,0.0040
3428.00,0.0040
3415.00,0.0043
3402.00,0.0044
3389.00,0.0044
3376.00,0.0044
3363.00,0.0045
3350.00,0.0046
3337.00,0.0047
3324.00,0.0046
3311.00,0.0045
3298.00,0.0045
3285.00,0.0044
3272.00,0.0044
3259.00,0.0042
3246.00,0.0041
3233.00,0.0040
3220.00,0.0038
3207.00,0.0037
3194.00,0.0036
3181.00,0.0034
3168.00,0.0034
3155.00,0.0033
3142.00,0.0031
3129.00,0.0031
3116.00,0.0033
3103.00,0.0042
3090.00,0.0048
3077.00,0.0061
3064.00,0.0075
3051.00,0.0062
3038.00,0.0064
3025.00,0.0147
3012.00,0.0056
2999.00,0.0053
2986.00,0.0036
2973.00,0.0039
2960.00,0.0049
2947.00,0.0073
2934.00,0.0130
2921.00,0.0178
2908.00,0.0141
2895.00,0.0092
2882.00,0.0070
2869.00,0.0061
2856.00,0.0081
2843.00,0.0076
2830.00,0.0039
2817.00,0.0033
2804.00,0.0032
2791.00,0.0030
2778.00,0.0029
2765.00,0.0028
2752.00,0.0028
2739.00,0.0028
2726.00,0.0027
2713.00,0.0027
2700.00,0.0027
2687.00,0.0027
2674.00,0.0027
2661.00,0.0029
2648.00,0.0030
2635.00,0.0030
2622.00,0.0028
2609.00,0.0027
2596.00,0.0026
2583.00,0.0026
2570.00,0.0024
2557.00,0.0023
2544.00,0.0023
2531.00,0.0023
2518.00,0.0022
2505.00,0.0022
2492.00,0.0022
2479.00,0.0019
2466.00,0.0021
2453.00,0.0021
2440.00,0.0019
2427.00,0.0017
2414.00,0.0018
2401.00,0.0016
2388.00,0.0017
2375.00,0.0015
2362.00,0.0016
2349.00,0.0017
2336.00,0.0019
2323.00,0.0027
2310.00,0.0023
2297.00,0.0023
2284.00,0.0026
2271.00,0.0022
2258.00,0.0020
2245.00,0.0017
2232.00,0.0019
2219.00,0.0017
2206.00,0.0018
2193.00,0.0018
2180.00,0.0012
2167.00,0.0024
2154.00,-0.0003
2141.00,0.0002
2128.00,0.0007
2115.00,0.0014
2102.00,0.0014
2089.00,0.0016
2076.00,0.0016
2063.00,0.0015
2050.00,0.0022
2037.00,0.0015
2024.00,0.0009
2011.00,0.0006
1998.00,0.0010
1985.00,0.0017
1972.00,0.0009
1959.00,0.0012
1946.00,0.0023
1933.00,0.0018
1920.00,0.0015
1907.00,0.0013
1894.00,0.0017
1881.00,0.0024
1868.00,0.0027
1855.00,0.0018
1842.00,0.0018
1829.00,0.0019
1816.00,0.0023
1803.00,0.0033
1790.00,0.0028
1777.00,0.0025
1764.00,0.0028
1751.00,0.0043
1738.00,0.0046
1725.00,0.0042
1712.00,0.0040
1699.00,0.0039
1686.00,0.0038
1673.00,0.0044
1660.00,0.0043
1647.00,0.0044
1634.00,0.0043
1621.00,0.0044
1608.00,0.0074
1595.00,0.0091
1582.00,0.0074
1569.00,0.0038
1556.00,0.0042
1543.00,0.0050
1530.00,0.0042
1517.00,0.0041
1504.00,0.0055
1491.00,0.0342
1478.00,0.0066
1465.00,0.0068
1452.00,0.0370
1439.00,0.0154
1426.00,0.0067
1413.00,0.0058
1400.00,0.0059
1387.00,0.0076
1374.00,0.0102
1361.00,0.0097
1348.00,0.0088
1335.00,0.0083
1322.00,0.0088
1309.00,0.0088
1296.00,0.0071
1283.00,0.0067
1270.00,0.0058
1257.00,0.0055
1244.00,0.0057
1231.00,0.0055
1218.00,0.0054
1205.00,0.0065
1192.00,0.0076
1179.00,0.0093
1166.00,0.0072
1153.00,0.0105
1140.00,0.0058
1127.00,0.0058
1114.00,0.0079
1101.00,0.0083
1088.00,0.0091
1075.00,0.0125
1062.00,0.0133
1049.00,0.0108
1036.00,0.0130
1023.00,0.0192
1010.00,0.0123
997.00,0.0107
984.00,0.0113
971.00,0.0106
958.00,0.0098
945.00,0.0092
932.00,0.0072
919.00,0.0079
906.00,0.0159
893.00,0.0072
880.00,0.0057
867.00,0.0056
854.00,0.0056
841.00,0.0087
828.00,0.0048
815.00,0.0049
802.00,0.0055
789.00,0.0087
776.00,0.0189
763.00,0.0463
750.00,0.0602
737.00,0.0271
724.00,0.0095
711.00,0.0178
698.00,0.1519
685.00,0.0636
672.00,0.0295
659.00,0.0191
646.00,0.0129
633.00,0.0142
620.00,0.0167
607.00,0.0138
594.00,0.0152
581.00,0.0185
568.00,0.0286
555.00,0.0398
542.00,0.0611
529.00,0.0464
516.00,0.0250
503.00,0.0183
490.00,0.0153
477.00,0.0148
464.00,0.0132
451.00,0.0123
438.00,0.0121
425.00,0.0123
412.00,0.0115
400.00,0.0169