Folder: Data/Raman/2025_10_10/Data

Note: Raman/2025_10_10/Data/2025_10_10_FEL_Xtal_Old_Sample_50X_785nm_1mW_Kymera328_600gv_970wn_3accum_30s_DePol_Pos1_spec.txt
784 nm
1000.0uW
Kymera 328
Depolarized

Note: Raman/2025_10_10/Data/2025_10_10_NIF_Xtal_50X_785nm_25uW__50mW_Kymera328_600gv_970wn_20accum_50s_UnPol_Pos4_spec.txt
784 nm
50.0mW
Kymera 328
Unpolarized

Note: Raman/2025_10_10/Data/2025_10_10_NIF_Xtal_50X_785nm_25uW_Kymera328_600gv_970wn_3accum_100s_DePol_Pos4_spec.txt
784 nm
25.0uW
Kymera 328
Depolarized

Note: Raman/2025_10_10/Data/2025_10_10_NIF_Xtal_50X_785nm_60uW_Kymera328_600gv_970wn_3accum_100s_Pol_Pos2_Increase_Power_spec.txt
784 nm
60.0uW
Kymera 328
Polarized

Note: Raman/2025_10_10/Data/2025_10_10_NIF_Xtal_Old_Sample_50X_785nm_150uW_Kymera328_600gv_970wn_3accum_30s_UnPol_Pos2_2_spec.txt
784 nm
150.0uW
Kymera 328
Unpolarized

Note: Raman/2025_10_10/Data/2025_10_10_Top_Glass_CCl4_Sq_Tubing_785nm_250mW_Kymera328_600gv_970wn_3accum_10s_UnPol_spec.txt
784 nm
250.0mW
Kymera 328
Unpolarized

Note: Raman/2025_10_10/Data/README.MD
# Raman Data collected Oct 10, 2025

Raman collected at ASU on the homebuilt system in PSB40.

File: 2025_10_10_Glass_Slide_50X_785nm_250mW_Kymera328_600gv_970wn_3accum_10s_Depol.csv
62.415,8916.000,8786.000,8901.000
70.010,7022.000,6999.000,7041.000
77.596,6180.000,6221.000,6160.000
85.172,5627.000,5572.000,5607.000
92.739,5272.000,5231.000,5254.000
100.298,4974.000,4939.000,4894.000
107.847,4862.000,4700.000,4770.000
115.388,4568.000,4555.000,4569.000
122.919,4444.000,4479.000,4414.000
130.441,4352.000,4341.000,4339.000
137.954,4244.000,4287.000,4293.000
145.459,4198.000,4181.000,4164.000
152.954,4139.000,4168.000,4201.000
160.440,4220.000,4190.000,4205.000
167.918,4434.000,4481.000,4415.000
175.388,5079.000,5067.000,5084.000
182.848,6031.000,6106.000,6031.000
190.299,6955.000,6970.000,6961.000
197.741,7377.000,7335.000,7411.000
205.174,7859.000,7929.000,7802.000
212.599,8107.000,8125.000,8077.000
220.015,8308.000,8217.000,8293.000
227.421,8498.000,8357.000,8416.000
234.819,8333.000,8284.000,8287.000
242.209,8276.000,8339.000,8238.000
249.591,8302.000,8336.000,8371.000
256.964,8369.000,8316.000,8381.000
264.327,8529.000,8526.000,8480.000
271.681,8470.000,8516.000,8515.000
279.028,8602.000,8581.000,8671.000
286.366,8709.000,8649.000,8763.000
293.694,8856.000,8804.000,8828.000
301.014,8939.000,8915.000,8896.000
308.326,9100.000,9026.000,9162.000
315.629,9171.000,9099.000,9167.000
322.925,9409.000,9385.000,9366.000
330.210,9567.000,9388.000,9530.000
337.488,9663.000,9602.000,9710.000
344.757,9768.000,9742.000,9959.000
352.017,9976.000,10095.000,10130.000
359.270,10241.000,10112.000,10146.000
366.513,10363.000,10275.000,10337.000
373.747,10426.000,10372.000,10504.000
380.974,10441.000,10480.000,10465.000
388.192,10597.000,10598.000,10590.000
395.403,10486.000,10545.000,10615.000
402.604,10611.000,10680.000,10741.000
409.797,10551.000,10633.000,10695.000
416.981,10506.000,10647.000,10525.000
424.157,10548.000,10628.000,10671.000
431.326,10674.000,10468.000,10665.000
438.486,10571.000,10608.000,10641.000
445.636,10562.000,10547.000,10547.000
452.779,10570.000,10574.000,10635.000
459.914,10609.000,10523.000,10567.000
467.041,10547.000,10588.000,10450.000
474.159,10515.000,10407.000,10473.000
481.269,10475.000,10489.000,10498.000
488.371,10364.000,10525.000,10538.000
495.464,10437.000,10438.000,10382.000
502.549,10450.000,10362.000,10336.000
509.626,10333.000,10459.000,10347.000
516.695,10338.000,10217.000,10376.000
523.755,10277.000,10316.000,10277.000
530.809,10213.000,10317.000,10242.000
537.853,10217.000,10259.000,10210.000
544.889,10080.000,10175.000,10341.000
551.918,10279.000,10345.000,10214.000
558.938,10223.000,10269.000,10213.000
565.950,10232.000,10300.000,10372.000
572.953,10276.000,10312.000,10129.000
579.950,10192.000,10114.000,10211.000
586.937,10163.000,10108.000,10248.000
593.917,10164.000,10038.000,10175.000
600.890,10164.000,10069.000,10180.000
607.855,10144.000,10018.000,10165.000
614.811,10022.000,10068.000,10013.000
621.758,9923.000,9970.000,10019.000
628.698,9946.000,10057.000,9888.000
635.630,9865.000,9943.000,9967.000
642.555,9779.000,9861.000,9955.000
649.471,9935.000,9919.000,9864.000
656.379,9838.000,9805.000,9953.000
663.280,9745.000,9880.000,9737.000
670.173,9882.000,9669.000,9691.000
677.058,9667.000,9695.000,9706.000
683.934,9584.000,9734.000,9631.000
690.804,9741.000,9638.000,9574.000
697.664,9523.000,9662.000,9627.000
704.518,9576.000,9617.000,9600.000
711.364,9431.000,9550.000,9557.000
718.202,9525.000,9496.000,9567.000
725.033,9473.000,9418.000,9369.000
731.854,9391.000,9422.000,9387.000
738.671,9274.000,9357.000,9327.000
745.477,9263.000,9303.000,9239.000
752.276,9262.000,9293.000,9322.000
759.068,9203.000,9180.000,9195.000
765.851,9126.000,9104.000,9266.000
772.628,9102.000,9171.000,9145.000
779.396,9097.000,9162.000,9176.000
786.158,9099.000,9165.000,9063.000
792.911,9026.000,9052.000,9117.000
799.656,9039.000,8972.000,9018.000
806.395,8875.000,8934.000,9026.000
813.125,8948.000,8878.000,8963.000
819.848,8889.000,8911.000,8982.000
826.564,8962.000,8810.000,8870.000
833.272,8867.000,8827.000,8842.000
839.972,8800.000,8815.000,8784.000
846.664,8654.000,8715.000,8712.000
853.350,8554.000,8617.000,8598.000
860.028,8610.000,8623.000,8590.000
866.697,8494.000,8502.000,8531.000
873.361,8418.000,8475.000,8492.000
880.016,8541.000,8464.000,8482.000
886.664,8478.000,8432.000,8520.000
893.304,8400.000,8489.000,8375.000
899.937,8329.000,8442.000,8411.000
906.562,8367.000,8290.000,8302.000
913.181,8358.000,8358.000,8263.000
919.792,8281.000,8347.000,8301.000
926.395,8291.000,8320.000,8364.000
932.992,8299.000,8353.000,8308.000
939.580,8366.000,8449.000,8330.000
946.162,8318.000,8320.000,8279.000
952.736,8270.000,8312.000,8350.000
959.302,8400.000,8351.000,8291.000
965.862,8280.000,8331.000,8265.000
972.414,8337.000,8263.000,8188.000
978.959,8287.000,8229.000,8317.000
985.496,8308.000,8318.000,8249.000
992.026,8241.000,8271.000,8339.000
998.549,8373.000,8258.000,8290.000
1005.066,8283.000,8333.000,8334.000
1011.575,8293.000,8329.000,8367.000
1018.076,8379.000,8295.000,8324.000
1024.570,8308.000,8355.000,8451.000
1031.057,8344.000,8338.000,8391.000
1037.537,8435.000,8343.000,8318.000
1044.009,8414.000,8439.000,8469.000
1050.475,8498.000,8547.000,8552.000
1056.934,8537.000,8527.000,8504.000
1063.386,8523.000,8635.000,8634.000
1069.829,8649.000,8643.000,8747.000
1076.267,8795.000,8732.000,8638.000
1082.697,8765.000,8951.000,8767.000
1089.119,8831.000,8924.000,8810.000
1095.535,9021.000,8945.000,8998.000
1101.943,9113.000,9107.000,9150.000
1108.345,9193.000,9266.000,9264.000
1114.740,9432.000,9282.000,9312.000
1121.128,9399.000,9401.000,9387.000
1127.508,9490.000,9396.000,9550.000
1133.883,9459.000,9561.000,9513.000
1140.250,9724.000,9798.000,9605.000
1146.610,9736.000,9739.000,9766.000
1152.962,9839.000,9866.000,9832.000
1159.308,10017.000,9921.000,9944.000
1165.647,10021.000,10020.000,10082.000
1171.979,10204.000,10180.000,10208.000
1178.304,10271.000,10308.000,10339.000
1184.623,10443.000,10428.000,10419.000
1190.934,10627.000,10653.000,10711.000
1197.239,10777.000,10865.000,10814.000
1203.536,10773.000,10897.000,10739.000
1209.827,10899.000,10944.000,10921.000
1216.110,11018.000,10966.000,11058.000
1222.387,11140.000,11270.000,11268.000
1228.657,11356.000,11384.000,11367.000
1234.920,11435.000,11517.000,11450.000
1241.177,11537.000,11524.000,11491.000
1247.427,11737.000,11679.000,11815.000
1253.670,11899.000,11799.000,11825.000
1259.906,11922.000,11727.000,11918.000
1266.136,11981.000,11883.000,11966.000
1272.358,12079.000,12195.000,12149.000
1278.575,12263.000,12198.000,12308.000
1284.783,12307.000,12187.000,12301.000
1290.986,12304.000,12392.000,12435.000
1297.181,12762.000,12580.000,12723.000
1303.371,12913.000,12912.000,12989.000
1309.554,13169.000,13205.000,13397.000
1315.730,13598.000,13689.000,13714.000
1321.899,14134.000,14189.000,14294.000
1328.062,14701.000,14915.000,14740.000
1334.216,15446.000,15363.000,15387.000
1340.366,15926.000,16030.000,15887.000
1346.509,16774.000,16745.000,16823.000
1352.644,17339.000,17515.000,17440.000
1358.773,18144.000,18060.000,18054.000
1364.897,18463.000,18702.000,18515.000
1371.012,18964.000,18929.000,18977.000
1377.123,19352.000,19278.000,19364.000
1383.226,19643.000,19460.000,19497.000
1389.323,19488.000,19581.000,19423.000
1395.413,19355.000,19481.000,19471.000
1401.495,19380.000,19422.000,19285.000
1407.572,19309.000,19304.000,19270.000
1413.643,18976.000,19116.000,19052.000
1419.707,18626.000,18677.000,18775.000
1425.764,18177.000,18266.000,18134.000
1431.816,17996.000,17984.000,18013.000
1437.861,17638.000,17542.000,17620.000
1443.898,17389.000,17322.000,17360.000
1449.930,16809.000,16979.000,16966.000
1455.955,16461.000,16328.000,16398.000
1461.974,16087.000,16075.000,16018.000
1467.987,15610.000,15585.000,15660.000
1473.993,15354.000,15463.000,15494.000
1479.992,15099.000,15074.000,15151.000
1485.985,14694.000,14710.000,14687.000
1491.972,14254.000,14359.000,14158.000
1497.953,13996.000,13998.000,13865.000
1503.928,13737.000,13654.000,13715.000
1509.895,13525.000,13550.000,13505.000
1515.857,13210.000,13280.000,13274.000
1521.812,12793.000,12819.000,12840.000
1527.760,12710.000,12660.000,12660.000
1533.703,12369.000,12376.000,12491.000
1539.639,12136.000,12217.000,12130.000
1545.570,12004.000,12002.000,12013.000
1551.494,11876.000,11903.000,11910.000
1557.411,11509.000,11589.000,11642.000
1563.322,11323.000,11388.000,11305.000
1569.228,11187.000,11264.000,11375.000
1575.126,11153.000,11000.000,11043.000
1581.018,10851.000,10976.000,11028.000
1586.905,10686.000,10644.000,10752.000
1592.785,10414.000,10481.000,10573.000
1598.659,10204.000,10272.000,10258.000
1604.527,10091.000,10087.000,10132.000
1610.389,10090.000,10012.000,10033.000
1616.244,9882.000,9835.000,9867.000
1622.093,9662.000,9567.000,9612.000
1627.937,9287.000,9414.000,9419.000
1633.774,9161.000,9264.000,9198.000
1639.604,9092.000,9030.000,9063.000
1645.430,8938.000,8975.000,8945.000
1651.248,8852.000,8919.000,8886.000
1657.061,8799.000,8853.000,8675.000
1662.867,8598.000,8491.000,8512.000
1668.668,8418.000,8346.000,8471.000
1674.462,8193.000,8200.000,8220.000
1680.251,8036.000,8075.000,8120.000
1686.033,7948.000,7991.000,7904.000
1691.809,7932.000,7791.000,7760.000
1697.579,7844.000,7784.000,7747.000
1703.344,7537.000,7552.000,7626.000
1709.102,7426.000,7415.000,7558.000
1714.854,7381.000,7315.000,7267.000
1720.600,7215.000,7228.000,7211.000
1726.341,7077.000,7172.000,7108.000
1732.075,7008.000,6994.000,7136.000
1737.804,6958.000,6893.000,6863.000
1743.526,6835.000,6807.000,6851.000
1747.813,6742.000,6769.000,6809.000

File: 2025_10_10_Glass_Slide_50X_785nm_250mW_Kymera328_600gv_970wn_3accum_10s_Pol.csv
62.415,21725.000,21023.000,21402.000
70.010,16097.000,15666.000,15841.000
77.596,13311.000,12822.000,13062.000
85.172,10907.000,10600.000,10732.000
92.739,9320.000,9234.000,9371.000
100.298,8263.000,8344.000,8304.000
107.847,7679.000,7629.000,7823.000
115.388,7147.000,7012.000,7194.000
122.919,6872.000,6787.000,6961.000
130.441,6558.000,6589.000,6645.000
137.954,6265.000,6357.000,6439.000
145.459,6163.000,6190.000,6246.000
152.954,5981.000,6048.000,6067.000
160.440,5947.000,6041.000,5997.000
167.918,5935.000,5970.000,6062.000
175.388,6278.000,6347.000,6384.000
182.848,6887.000,7000.000,6999.000
190.299,7866.000,7926.000,8048.000
197.741,8893.000,9038.000,8985.000
205.174,9799.000,10051.000,9974.000
212.599,10958.000,10995.000,11004.000
220.015,11181.000,11408.000,11383.000
227.421,10859.000,10848.000,11000.000
234.819,9947.000,10072.000,9953.000
242.209,9511.000,9561.000,9582.000
249.591,9600.000,9645.000,9717.000
256.964,9569.000,9576.000,9611.000
264.327,9776.000,9751.000,9845.000
271.681,10024.000,9926.000,9973.000
279.028,10139.000,10194.000,10167.000
286.366,10273.000,10379.000,10485.000
293.694,10552.000,10635.000,10589.000
301.014,10923.000,10851.000,10879.000
308.326,11127.000,11181.000,11190.000
315.629,11403.000,11377.000,11406.000
322.925,11579.000,11655.000,11732.000
330.210,11849.000,12027.000,11942.000
337.488,12209.000,12259.000,12234.000
344.757,12401.000,12411.000,12440.000
352.017,12724.000,12710.000,12678.000
359.270,12923.000,12886.000,13023.000
366.513,13092.000,12989.000,13102.000
373.747,13113.000,13321.000,13270.000
380.974,13280.000,13352.000,13402.000
388.192,13471.000,13490.000,13542.000
395.403,13600.000,13528.000,13561.000
402.604,13497.000,13470.000,13482.000
409.797,13422.000,13664.000,13513.000
416.981,13494.000,13594.000,13842.000
424.157,13404.000,13495.000,13632.000
431.326,13470.000,13666.000,13498.000
438.486,13411.000,13389.000,13414.000
445.636,13529.000,13464.000,13507.000
452.779,13306.000,13317.000,13443.000
459.914,13183.000,13224.000,13288.000
467.041,13155.000,13231.000,13293.000
474.159,13151.000,13205.000,13148.000
481.269,13116.000,13133.000,12956.000
488.371,12999.000,12951.000,13083.000
495.464,12849.000,12969.000,12912.000
502.549,12921.000,12725.000,12775.000
509.626,12690.000,12686.000,12825.000
516.695,12634.000,12682.000,12542.000
523.755,12516.000,12616.000,12480.000
530.809,12395.000,12540.000,12560.000
537.853,12408.000,12415.000,12305.000
544.889,12290.000,12434.000,12356.000
551.918,12330.000,12394.000,12373.000
558.938,12304.000,12470.000,12443.000
565.950,12426.000,12358.000,12357.000
572.953,12311.000,12326.000,12375.000
579.950,12362.000,12345.000,12311.000
586.937,12070.000,12205.000,12231.000
593.917,12145.000,12253.000,12224.000
600.890,11974.000,12045.000,12043.000
607.855,11944.000,11985.000,12033.000
614.811,11940.000,11957.000,12002.000
621.758,11870.000,11760.000,11853.000
628.698,11852.000,11756.000,11657.000
635.630,11671.000,11691.000,11713.000
642.555,11606.000,11617.000,11666.000
649.471,11525.000,11612.000,11611.000
656.379,11483.000,11598.000,11548.000
663.280,11448.000,11554.000,11395.000
670.173,11398.000,11386.000,11343.000
677.058,11283.000,11368.000,11418.000
683.934,11284.000,11263.000,11297.000
690.804,11239.000,11282.000,11395.000
697.664,11270.000,11201.000,11322.000
704.518,11130.000,11177.000,11193.000
711.364,11173.000,11037.000,11099.000
718.202,10944.000,11003.000,11047.000
725.033,11034.000,11139.000,11015.000
731.854,10973.000,11003.000,11046.000
738.671,10825.000,10866.000,10871.000
745.477,10855.000,10979.000,10868.000
752.276,10804.000,10827.000,10879.000
759.068,10828.000,10748.000,10799.000
765.851,10712.000,10695.000,10883.000
772.628,10728.000,10838.000,10813.000
779.396,10813.000,10755.000,10742.000
786.158,10611.000,10762.000,10681.000
792.911,10607.000,10663.000,10582.000
799.656,10434.000,10601.000,10660.000
806.395,10447.000,10479.000,10403.000
813.125,10491.000,10517.000,10464.000
819.848,10360.000,10408.000,10334.000
826.564,10334.000,10440.000,10339.000
833.272,10228.000,10275.000,10234.000
839.972,10065.000,10140.000,10148.000
846.664,10023.000,10107.000,10114.000
853.350,9880.000,9958.000,10110.000
860.028,9883.000,9905.000,9910.000
866.697,9791.000,9811.000,9916.000
873.361,9761.000,9826.000,9781.000
880.016,9839.000,9756.000,9850.000
886.664,9811.000,9716.000,9744.000
893.304,9604.000,9652.000,9716.000
899.937,9504.000,9575.000,9570.000
906.562,9514.000,9496.000,9608.000
913.181,9523.000,9611.000,9634.000
919.792,9574.000,9580.000,9608.000
926.395,9620.000,9485.000,9510.000
932.992,9579.000,9590.000,9479.000
939.580,9538.000,9650.000,9616.000
946.162,9520.000,9635.000,9559.000
952.736,9542.000,9561.000,9538.000
959.302,9374.000,9556.000,9519.000
965.862,9534.000,9531.000,9550.000
972.414,9500.000,9489.000,9499.000
978.959,9355.000,9407.000,9563.000
985.496,9491.000,9472.000,9455.000
992.026,9492.000,9540.000,9468.000
998.549,9395.000,9504.000,9577.000
1005.066,9507.000,9457.000,9533.000
1011.575,9567.000,9547.000,9522.000
1018.076,9393.000,9505.000,9511.000
1024.570,9542.000,9510.000,9592.000
1031.057,9546.000,9585.000,9583.000
1037.537,9602.000,9494.000,9619.000
1044.009,9727.000,9584.000,9624.000
1050.475,9691.000,9674.000,9849.000
1056.934,9882.000,9767.000,9778.000
1063.386,9815.000,9815.000,9902.000
1069.829,10002.000,9938.000,9969.000
1076.267,10040.000,10068.000,10123.000
1082.697,10041.000,10219.000,10151.000
1089.119,10283.000,10206.000,10265.000
1095.535,10294.000,10330.000,10414.000
1101.943,10476.000,10467.000,10445.000
1108.345,10655.000,10508.000,10578.000
1114.740,10623.000,10570.000,10599.000
1121.128,10741.000,10658.000,10620.000
1127.508,10690.000,10758.000,10677.000
1133.883,10676.000,13402.000,10766.000
1140.250,10749.000,10797.000,10678.000
1146.610,10778.000,10787.000,10817.000
1152.962,10851.000,10831.000,10866.000
1159.308,10949.000,10869.000,10914.000
1165.647,11092.000,11000.000,10985.000
1171.979,11071.000,11102.000,11115.000
1178.304,11083.000,11211.000,11296.000
1184.623,11385.000,11277.000,11246.000
1190.934,11423.000,11402.000,11387.000
1197.239,11544.000,11547.000,11656.000
1203.536,11504.000,11598.000,11558.000
1209.827,11600.000,11619.000,11583.000
1216.110,11855.000,11781.000,11867.000
1222.387,11990.000,11993.000,11901.000
1228.657,12056.000,12043.000,12029.000
1234.920,11883.000,12083.000,12014.000
1241.177,12104.000,12114.000,12132.000
1247.427,12179.000,12241.000,12267.000
1253.670,12345.000,12314.000,12499.000
1259.906,12310.000,12565.000,12551.000
1266.136,12598.000,12515.000,12487.000
1272.358,12755.000,12702.000,12695.000
1278.575,12708.000,12711.000,12681.000
1284.783,12785.000,12908.000,12903.000
1290.986,12969.000,13082.000,13015.000
1297.181,13246.000,13246.000,13277.000
1303.371,13434.000,13496.000,13454.000
1309.554,13776.000,13785.000,13836.000
1315.730,14065.000,14060.000,14082.000
1321.899,14542.000,14628.000,14831.000
1328.062,15242.000,15278.000,15309.000
1334.216,15801.000,15839.000,15829.000
1340.366,16415.000,16619.000,16682.000
1346.509,17233.000,17186.000,17188.000
1352.644,17713.000,17816.000,17827.000
1358.773,18322.000,18481.000,18448.000
1364.897,18845.000,18886.000,18868.000
1371.012,19101.000,19265.000,19210.000
1377.123,19794.000,19505.000,19686.000
1383.226,19782.000,19839.000,19998.000
1389.323,19614.000,19753.000,19725.000
1395.413,19713.000,19490.000,19646.000
1401.495,19566.000,19528.000,19580.000
1407.572,19365.000,19433.000,19638.000
1413.643,19385.000,19345.000,19159.000
1419.707,18603.000,18726.000,18808.000
1425.764,18244.000,18337.000,18346.000
1431.816,17957.000,17914.000,17805.000
1437.861,17726.000,17514.000,17719.000
1443.898,17396.000,17499.000,17477.000
1449.930,17090.000,17156.000,17170.000
1455.955,16478.000,16511.000,16625.000
1461.974,16123.000,16188.000,16097.000
1467.987,15733.000,15685.000,15854.000
1473.993,15534.000,15474.000,15537.000
1479.992,15208.000,15317.000,15186.000
1485.985,14911.000,14941.000,14962.000
1491.972,14353.000,14451.000,14510.000
1497.953,14051.000,14046.000,14120.000
1503.928,13806.000,13745.000,13790.000
1509.895,13555.000,13520.000,13582.000
1515.857,13498.000,13513.000,13382.000
1521.812,13017.000,13114.000,13070.000
1527.760,12886.000,12856.000,12894.000
1533.703,12625.000,12574.000,12521.000
1539.639,12324.000,12332.000,12379.000
1545.570,12336.000,12179.000,12237.000
1551.494,12100.000,11878.000,12009.000
1557.411,11814.000,11950.000,11692.000
1563.322,11660.000,11777.000,11560.000
1569.228,11529.000,11422.000,11607.000
1575.126,11297.000,11289.000,11404.000
1581.018,11147.000,11218.000,11094.000
1586.905,10893.000,10863.000,10770.000
1592.785,10689.000,10652.000,10661.000
1598.659,10560.000,10604.000,10448.000
1604.527,10416.000,10398.000,10421.000
1610.389,10213.000,10291.000,10255.000
1616.244,10029.000,9971.000,10010.000
1622.093,9741.000,9742.000,9796.000
1627.937,9533.000,9652.000,9659.000
1633.774,9399.000,9426.000,9463.000
1639.604,9286.000,9238.000,9228.000
1645.430,9092.000,9085.000,9164.000
1651.248,9031.000,9111.000,9041.000
1657.061,8853.000,8913.000,8793.000
1662.867,8679.000,8699.000,8702.000
1668.668,8471.000,8646.000,8526.000
1674.462,8367.000,8467.000,8463.000
1680.251,8353.000,8316.000,8272.000
1686.033,8138.000,8154.000,8222.000
1691.809,8084.000,8071.000,8155.000
1697.579,7962.000,7945.000,7959.000
1703.344,7759.000,7870.000,7742.000
1709.102,7697.000,7705.000,7636.000
1714.854,7469.000,7514.000,7570.000
1720.600,7443.000,7426.000,7473.000
1726.341,7323.000,7413.000,7396.000
1732.075,7243.000,7201.000,7161.000
1737.804,7006.000,7133.000,7090.000
1743.526,7010.000,7088.000,7137.000
1747.813,7041.000,7019.000,6996.000