Folder: Data/FTIR/db-LASE IR data/AgNPr-LASE unlasered

Note: FTIR/README
YargerLab FT-IR Data Repo

File: Silk AgNPr film unlasered 2 8.26.22.dpt
3997.65	0.00034
3985.3	0.00119
3972.94	0.00096
3960.58	0.00034
3948.22	-0.00107
3935.87	-0.00157
3923.51	0.00085
3911.15	0.00026
3898.79	0.00105
3886.44	0.00027
3874.08	0.00161
3861.72	0.00070
3849.36	0.00152
3837.01	-0.00153
3824.65	-0.00069
3812.29	-0.00094
3799.93	0.00075
3787.58	0.00075
3775.22	0.00111
3762.86	0.00023
3750.5	0.00017
3738.15	0.00233
3725.79	0.00080
3713.43	0.00006
3701.07	0.00225
3688.72	0.00260
3676.36	0.00272
3664	0.00362
3651.64	0.00611
3639.29	0.00889
3626.93	0.01414
3614.57	0.01570
3602.21	0.01913
3589.86	0.02350
3577.5	0.02774
3565.14	0.03142
3552.78	0.03709
3540.43	0.04121
3528.07	0.04433
3515.71	0.04941
3503.35	0.05174
3491	0.05550
3478.64	0.05751
3466.28	0.06059
3453.92	0.06139
3441.57	0.06429
3429.21	0.06525
3416.85	0.06932
3404.49	0.07229
3392.14	0.07659
3379.78	0.08098
3367.42	0.08445
3355.06	0.09115
3342.71	0.09590
3330.35	0.10093
3317.99	0.10789
3305.63	0.11374
3293.28	0.11916
3280.92	0.11970
3268.56	0.11955
3256.2	0.11465
3243.85	0.10946
3231.49	0.10294
3219.13	0.09739
3206.77	0.09035
3194.42	0.08320
3182.06	0.07582
3169.7	0.06743
3157.34	0.05993
3144.99	0.05467
3132.63	0.05186
3120.27	0.04997
3107.91	0.05005
3095.56	0.05197
3083.2	0.05550
3070.84	0.05606
3058.48	0.05378
3046.13	0.04724
3033.77	0.04219
3021.41	0.03680
3009.05	0.03359
2996.7	0.03342
2984.34	0.03672
2971.98	0.03618
2959.62	0.03537
2947.27	0.03812
2934.91	0.04215
2922.55	0.03711
2910.19	0.02916
2897.84	0.02516
2885.48	0.02316
2873.12	0.02282
2860.76	0.02035
2848.41	0.01886
2836.05	0.01717
2823.69	0.01602
2811.33	0.01527
2798.98	0.01389
2786.62	0.01254
2774.26	0.01148
2761.9	0.01008
2749.55	0.00888
2737.19	0.00786
2724.83	0.00760
2712.47	0.00689
2700.12	0.00648
2687.76	0.00640
2675.4	0.00654
2663.04	0.00640
2650.69	0.00608
2638.33	0.00616
2625.97	0.00571
2613.61	0.00569
2601.26	0.00427
2588.9	0.00461
2576.54	0.00414
2564.18	0.00372
2551.83	0.00296
2539.47	0.00298
2527.11	0.00281
2514.75	0.00324
2502.4	0.00165
2490.04	0.00267
2477.68	0.00187
2465.32	0.00247
2452.97	0.00189
2440.61	0.00238
2428.25	0.00238
2415.89	0.00113
2403.54	0.00120
2391.18	0.00212
2378.82	0.00172
2366.46	0.00208
2354.11	0.00298
2341.75	0.00210
2329.39	0.00200
2317.03	0.00318
2304.68	0.00383
2292.32	0.00282
2279.96	0.00318
2267.6	0.00361
2255.25	0.00182
2242.89	0.00237
2230.53	0.00208
2218.17	0.00316
2205.82	0.00263
2193.46	0.00138
2181.1	0.00243
2168.74	0.00068
2156.39	0.00312
2144.03	0.00058
2131.67	0.00102
2119.31	0.00238
2106.96	0.00279
2094.6	0.00292
2082.24	0.00288
2069.88	0.00212
2057.53	0.00183
2045.17	0.00209
2032.81	0.00221
2020.45	0.00177
2008.1	0.00032
1995.74	0.00141
1983.38	0.00176
1971.02	0.00218
1958.67	0.00024
1946.31	0.00117
1933.95	0.00201
1921.59	0.00027
1909.24	0.00078
1896.88	0.00106
1884.52	0.00099
1872.16	0.00155
1859.81	0.00181
1847.45	0.00136
1835.09	0.00208
1822.73	0.00237
1810.38	0.00214
1798.02	0.00284
1785.66	0.00336
1773.3	0.00348
1760.95	0.00452
1748.59	0.00521
1736.23	0.00625
1723.87	0.00836
1711.52	0.01464
1699.16	0.03349
1686.8	0.05781
1674.44	0.08339
1662.09	0.10955
1649.73	0.13314
1637.37	0.14204
1625.01	0.13043
1612.66	0.09908
1600.3	0.06944
1587.94	0.05992
1575.58	0.06803
1563.23	0.08651
1550.87	0.10940
1538.51	0.12573
1526.15	0.12985
1513.8	0.13422
1501.44	0.11495
1489.08	0.08365
1476.72	0.06321
1464.37	0.06174
1452.01	0.06919
1439.65	0.05936
1427.29	0.05285
1414.94	0.06175
1402.58	0.06037
1390.22	0.05916
1377.86	0.06033
1365.5	0.05120
1353.15	0.04421
1340.79	0.05046
1328.43	0.05132
1316.07	0.04570
1303.72	0.04749
1291.36	0.05076
1279	0.05368
1266.64	0.06047
1254.29	0.06819
1241.93	0.07694
1229.57	0.07756
1217.21	0.06273
1204.86	0.04602
1192.5	0.03713
1180.14	0.03773
1167.78	0.04193
1155.43	0.03856
1143.07	0.03320
1130.71	0.03071
1118.35	0.03060
1106	0.03065
1093.64	0.02876
1081.28	0.03409
1068.92	0.03767
1056.57	0.03878
1044.21	0.03400
1031.85	0.03022
1019.49	0.03186
1007.14	0.02942
994.78	0.02070
982.422	0.01757
970.065	0.01726
957.707	0.01926
945.35	0.02041
932.992	0.01893
920.635	0.01700
908.277	0.01581
895.92	0.01525
883.562	0.01586
871.205	0.01651
858.847	0.01905
846.49	0.02099
834.132	0.02329
821.774	0.02366
809.417	0.02487
797.059	0.02620
784.702	0.02773
772.344	0.02949
759.987	0.03189
747.629	0.03450
735.272	0.03694
722.914	0.03903
710.557	0.04131
698.199	0.04324
685.842	0.04567
673.484	0.04747
661.127	0.04833
648.769	0.04877
636.412	0.04915
624.054	0.04881
611.697	0.04890
599.339	0.04913
586.982	0.04970
574.624	0.05134
562.267	0.05306
549.909	0.05542
537.552	0.05560
525.194	0.05521
512.837	0.05506
500.479	0.05532
488.122	0.05408
475.764	0.05272
463.407	0.05124
451.049	0.04965
438.692	0.04862
426.334	0.04714
413.977	0.04688
401.619	0.04715
399.56	0.04740

File: Silk AgNPr film unlasered 2 9.22.22.dpt
3997.65	0.00651
3985.3	0.00652
3972.94	0.00585
3960.58	0.00631
3948.22	0.00539
3935.87	0.00547
3923.51	0.00594
3911.15	0.00522
3898.79	0.00572
3886.44	0.00524
3874.08	0.00490
3861.72	0.00387
3849.36	0.00495
3837.01	0.00630
3824.65	0.00490
3812.29	0.00458
3799.93	0.00598
3787.58	0.00612
3775.22	0.00546
3762.86	0.00520
3750.5	0.00650
3738.15	0.00558
3725.79	0.00597
3713.43	0.00774
3701.07	0.00719
3688.72	0.00888
3676.36	0.01383
3664	0.01729
3651.64	0.02507
3639.29	0.03224
3626.93	0.04131
3614.57	0.05157
3602.21	0.06391
3589.86	0.07625
3577.5	0.08842
3565.14	0.10449
3552.78	0.11743
3540.43	0.13287
3528.07	0.14626
3515.71	0.15694
3503.35	0.16747
3491	0.17614
3478.64	0.18339
3466.28	0.19041
3453.92	0.19831
3441.57	0.20523
3429.21	0.21187
3416.85	0.22316
3404.49	0.23438
3392.14	0.24828
3379.78	0.26310
3367.42	0.27857
3355.06	0.29676
3342.71	0.31865
3330.35	0.34191
3317.99	0.36501
3305.63	0.38954
3293.28	0.40760
3280.92	0.41533
3268.56	0.41281
3256.2	0.39622
3243.85	0.37137
3231.49	0.34915
3219.13	0.32658
3206.77	0.30244
3194.42	0.27518
3182.06	0.24778
3169.7	0.22067
3157.34	0.19655
3144.99	0.17764
3132.63	0.16533
3120.27	0.16127
3107.91	0.16249
3095.56	0.16964
3083.2	0.17862
3070.84	0.18139
3058.48	0.17309
3046.13	0.15623
3033.77	0.13560
3021.41	0.11931
3009.05	0.10871
2996.7	0.11005
2984.34	0.11902
2971.98	0.11596
2959.62	0.11281
2947.27	0.11962
2934.91	0.13099
2922.55	0.10904
2910.19	0.08489
2897.84	0.07590
2885.48	0.07402
2873.12	0.07306
2860.76	0.06228
2848.41	0.04990
2836.05	0.05354
2823.69	0.05324
2811.33	0.05041
2798.98	0.04637
2786.62	0.04170
2774.26	0.03776
2761.9	0.03390
2749.55	0.03228
2737.19	0.02848
2724.83	0.02687
2712.47	0.02538
2700.12	0.02365
2687.76	0.02323
2675.4	0.02207
2663.04	0.02120
2650.69	0.02052
2638.33	0.02002
2625.97	0.02001
2613.61	0.01812
2601.26	0.01736
2588.9	0.01592
2576.54	0.01456
2564.18	0.01397
2551.83	0.01236
2539.47	0.01240
2527.11	0.01219
2514.75	0.01220
2502.4	0.01182
2490.04	0.01063
2477.68	0.01155
2465.32	0.01072
2452.97	0.01049
2440.61	0.01002
2428.25	0.00935
2415.89	0.00906
2403.54	0.00893
2391.18	0.00879
2378.82	0.00854
2366.46	0.00573
2354.11	0.00642
2341.75	0.00831
2329.39	0.01068
2317.03	0.00561
2304.68	0.00877
2292.32	0.01006
2279.96	0.00957
2267.6	0.01087
2255.25	0.00919
2242.89	0.00893
2230.53	0.00849
2218.17	0.00951
2205.82	0.00980
2193.46	0.01059
2181.1	0.00963
2168.74	0.01119
2156.39	0.00648
2144.03	0.00699
2131.67	0.00794
2119.31	0.01006
2106.96	0.01098
2094.6	0.00938
2082.24	0.00938
2069.88	0.00964
2057.53	0.00868
2045.17	0.00836
2032.81	0.00501
2020.45	0.00663
2008.1	0.00898
1995.74	0.00721
1983.38	0.00622
1971.02	0.00568
1958.67	0.00515
1946.31	0.00486
1933.95	0.00665
1921.59	0.00738
1909.24	0.00750
1896.88	0.00756
1884.52	0.00764
1872.16	0.00750
1859.81	0.00742
1847.45	0.00790
1835.09	0.00815
1822.73	0.00894
1810.38	0.00980
1798.02	0.01070
1785.66	0.01201
1773.3	0.01340
1760.95	0.01494
1748.59	0.01760
1736.23	0.02034
1723.87	0.02573
1711.52	0.04478
1699.16	0.10749
1686.8	0.19275
1674.44	0.29669
1662.09	0.41904
1649.73	0.54027
1637.37	0.59346
1625.01	0.52760
1612.66	0.37074
1600.3	0.24052
1587.94	0.20129
1575.58	0.23149
1563.23	0.31099
1550.87	0.41841
1538.51	0.50194
1526.15	0.53421
1513.8	0.56551
1501.44	0.46212
1489.08	0.31275
1476.72	0.22793
1464.37	0.21646
1452.01	0.24807
1439.65	0.20876
1427.29	0.18232
1414.94	0.21692
1402.58	0.20911
1390.22	0.20421
1377.86	0.21275
1365.5	0.17741
1353.15	0.15148
1340.79	0.17564
1328.43	0.18043
1316.07	0.15728
1303.72	0.16435
1291.36	0.17611
1279	0.18852
1266.64	0.21608
1254.29	0.24760
1241.93	0.28756
1229.57	0.29305
1217.21	0.23022
1204.86	0.16482
1192.5	0.12978
1180.14	0.13045
1167.78	0.14632
1155.43	0.13432
1143.07	0.11404
1130.71	0.10490
1118.35	0.10361
1106	0.10343
1093.64	0.09607
1081.28	0.11479
1068.92	0.12866
1056.57	0.13283
1044.21	0.11570
1031.85	0.10204
1019.49	0.10806
1007.14	0.10152
994.78	0.06984
982.422	0.05751
970.065	0.05780
957.707	0.06363
945.35	0.06800
932.992	0.06237
920.635	0.05588
908.277	0.05116
895.92	0.04941
883.562	0.05043
871.205	0.05339
858.847	0.06279
846.49	0.06846
834.132	0.07531
821.774	0.07712
809.417	0.08161
797.059	0.08587
784.702	0.09110
772.344	0.09810
759.987	0.10610
747.629	0.11621
735.272	0.12547
722.914	0.13395
710.557	0.14269
698.199	0.15289
685.842	0.16037
673.484	0.16779
661.127	0.17386
648.769	0.17548
636.412	0.17601
624.054	0.17515
611.697	0.17486
599.339	0.17551
586.982	0.17838
574.624	0.18539
562.267	0.19329
549.909	0.20275
537.552	0.20487
525.194	0.20163
512.837	0.20011
500.479	0.19623
488.122	0.19372
475.764	0.18659
463.407	0.17809
451.049	0.17014
438.692	0.16477
426.334	0.15851
413.977	0.15514
401.619	0.14981
399.56	0.14756

File: Silk AgNPr film unlasered 8.26.22.dpt
3997.65	0.00125
3985.3	0.00269
3972.94	0.00308
3960.58	0.00172
3948.22	0.00064
3935.87	0.00112
3923.51	0.00140
3911.15	0.00218
3898.79	0.00181
3886.44	0.00081
3874.08	0.00308
3861.72	0.00325
3849.36	0.00258
3837.01	0.00147
3824.65	0.00109
3812.29	0.00026
3799.93	0.00108
3787.58	0.00270
3775.22	0.00217
3762.86	0.00185
3750.5	0.00336
3738.15	0.00617
3725.79	0.00226
3713.43	0.00159
3701.07	0.00195
3688.72	0.00138
3676.36	0.00341
3664	0.00470
3651.64	0.00785
3639.29	0.00830
3626.93	0.01341
3614.57	0.01555
3602.21	0.01877
3589.86	0.02113
3577.5	0.02427
3565.14	0.02927
3552.78	0.03233
3540.43	0.03579
3528.07	0.03954
3515.71	0.04281
3503.35	0.04634
3491	0.04881
3478.64	0.05044
3466.28	0.05225
3453.92	0.05577
3441.57	0.05684
3429.21	0.05757
3416.85	0.06135
3404.49	0.06381
3392.14	0.06719
3379.78	0.07144
3367.42	0.07439
3355.06	0.07912
3342.71	0.08399
3330.35	0.08911
3317.99	0.09382
3305.63	0.09970
3293.28	0.10330
3280.92	0.10487
3268.56	0.10523
3256.2	0.10155
3243.85	0.09868
3231.49	0.09454
3219.13	0.08992
3206.77	0.08503
3194.42	0.07869
3182.06	0.07150
3169.7	0.06405
3157.34	0.05751
3144.99	0.05262
3132.63	0.04846
3120.27	0.04664
3107.91	0.04623
3095.56	0.04796
3083.2	0.05116
3070.84	0.05184
3058.48	0.05082
3046.13	0.04553
3033.77	0.04083
3021.41	0.03632
3009.05	0.03264
2996.7	0.03210
2984.34	0.03472
2971.98	0.03462
2959.62	0.03480
2947.27	0.03656
2934.91	0.04064
2922.55	0.03940
2910.19	0.03117
2897.84	0.02657
2885.48	0.02408
2873.12	0.02341
2860.76	0.02132
2848.41	0.02188
2836.05	0.01803
2823.69	0.01705
2811.33	0.01611
2798.98	0.01501
2786.62	0.01371
2774.26	0.01220
2761.9	0.01134
2749.55	0.01044
2737.19	0.00945
2724.83	0.00958
2712.47	0.00778
2700.12	0.00798
2687.76	0.00752
2675.4	0.00778
2663.04	0.00751
2650.69	0.00775
2638.33	0.00739
2625.97	0.00745
2613.61	0.00696
2601.26	0.00572
2588.9	0.00601
2576.54	0.00546
2564.18	0.00457
2551.83	0.00454
2539.47	0.00445
2527.11	0.00415
2514.75	0.00469
2502.4	0.00331
2490.04	0.00384
2477.68	0.00363
2465.32	0.00341
2452.97	0.00349
2440.61	0.00398
2428.25	0.00366
2415.89	0.00316
2403.54	0.00278
2391.18	0.00346
2378.82	0.00240
2366.46	0.00045
2354.11	0.00113
2341.75	0.00111
2329.39	0.00181
2317.03	0.00347
2304.68	0.00426
2292.32	0.00410
2279.96	0.00396
2267.6	0.00444
2255.25	0.00239
2242.89	0.00415
2230.53	0.00418
2218.17	0.00411
2205.82	0.00381
2193.46	0.00205
2181.1	0.00294
2168.74	0.00294
2156.39	0.00384
2144.03	0.00199
2131.67	0.00226
2119.31	0.00364
2106.96	0.00366
2094.6	0.00389
2082.24	0.00332
2069.88	0.00293
2057.53	0.00358
2045.17	0.00369
2032.81	0.00322
2020.45	0.00243
2008.1	0.00306
1995.74	0.00429
1983.38	0.00383
1971.02	0.00097
1958.67	0.00079
1946.31	0.00259
1933.95	0.00305
1921.59	0.00173
1909.24	0.00269
1896.88	0.00285
1884.52	0.00317
1872.16	0.00196
1859.81	0.00289
1847.45	0.00218
1835.09	0.00290
1822.73	0.00331
1810.38	0.00337
1798.02	0.00386
1785.66	0.00417
1773.3	0.00492
1760.95	0.00532
1748.59	0.00631
1736.23	0.00760
1723.87	0.00992
1711.52	0.01777
1699.16	0.03923
1686.8	0.06764
1674.44	0.09868
1662.09	0.12976
1649.73	0.15595
1637.37	0.16493
1625.01	0.14688
1612.66	0.10765
1600.3	0.07347
1587.94	0.06331
1575.58	0.07330
1563.23	0.09632
1550.87	0.12608
1538.51	0.14825
1526.15	0.15532
1513.8	0.16204
1501.44	0.13681
1489.08	0.09761
1476.72	0.07232
1464.37	0.06996
1452.01	0.07868
1439.65	0.06805
1427.29	0.06004
1414.94	0.07078
1402.58	0.07010
1390.22	0.06851
1377.86	0.07085
1365.5	0.06022
1353.15	0.05183
1340.79	0.05850
1328.43	0.05922
1316.07	0.05314
1303.72	0.05587
1291.36	0.05986
1279	0.06350
1266.64	0.07264
1254.29	0.08345
1241.93	0.09607
1229.57	0.09827
1217.21	0.07901
1204.86	0.05798
1192.5	0.04680
1180.14	0.04747
1167.78	0.05320
1155.43	0.04944
1143.07	0.04285
1130.71	0.04058
1118.35	0.04093
1106	0.04184
1093.64	0.04076
1081.28	0.04765
1068.92	0.05370
1056.57	0.05576
1044.21	0.05077
1031.85	0.04518
1019.49	0.04590
1007.14	0.04308
994.78	0.03057
982.422	0.02563
970.065	0.02478
957.707	0.02698
945.35	0.02924
932.992	0.02702
920.635	0.02429
908.277	0.02249
895.92	0.02127
883.562	0.02181
871.205	0.02264
858.847	0.02617
846.49	0.02845
834.132	0.03091
821.774	0.03154
809.417	0.03332
797.059	0.03497
784.702	0.03741
772.344	0.04035
759.987	0.04360
747.629	0.04799
735.272	0.05217
722.914	0.05632
710.557	0.06010
698.199	0.06445
685.842	0.06856
673.484	0.07201
661.127	0.07500
648.769	0.07619
636.412	0.07723
624.054	0.07793
611.697	0.07959
599.339	0.08078
586.982	0.08331
574.624	0.08636
562.267	0.09071
549.909	0.09532
537.552	0.09734
525.194	0.09749
512.837	0.09910
500.479	0.09950
488.122	0.09856
475.764	0.09621
463.407	0.09402
451.049	0.09123
438.692	0.08917
426.334	0.08912
413.977	0.08785
401.619	0.08742
399.56	0.08756

File: Silk AgNPr film unlasered 9.22.22.dpt
3997.65	0.01173
3985.3	0.01069
3972.94	0.01096
3960.58	0.01119
3948.22	0.00831
3935.87	0.00837
3923.51	0.00905
3911.15	0.00899
3898.79	0.00939
3886.44	0.00813
3874.08	0.00582
3861.72	0.00763
3849.36	0.00433
3837.01	0.01011
3824.65	0.00626
3812.29	0.00526
3799.93	0.00820
3787.58	0.00876
3775.22	0.00667
3762.86	0.00650
3750.5	0.01172
3738.15	0.00644
3725.79	0.00881
3713.43	0.01070
3701.07	0.01156
3688.72	0.01474
3676.36	0.01811
3664	0.01859
3651.64	0.02699
3639.29	0.03414
3626.93	0.04313
3614.57	0.05117
3602.21	0.06373
3589.86	0.07476
3577.5	0.08811
3565.14	0.10336
3552.78	0.11556
3540.43	0.12905
3528.07	0.14243
3515.71	0.15320
3503.35	0.16373
3491	0.17261
3478.64	0.17942
3466.28	0.18647
3453.92	0.19321
3441.57	0.19960
3429.21	0.20829
3416.85	0.21803
3404.49	0.22956
3392.14	0.24137
3379.78	0.25481
3367.42	0.27050
3355.06	0.28792
3342.71	0.30786
3330.35	0.33028
3317.99	0.35194
3305.63	0.37430
3293.28	0.39062
3280.92	0.39743
3268.56	0.39613
3256.2	0.37929
3243.85	0.35653
3231.49	0.33594
3219.13	0.31370
3206.77	0.29071
3194.42	0.26539
3182.06	0.24022
3169.7	0.21416
3157.34	0.19173
3144.99	0.17407
3132.63	0.16167
3120.27	0.15715
3107.91	0.15868
3095.56	0.16503
3083.2	0.17333
3070.84	0.17533
3058.48	0.16740
3046.13	0.15205
3033.77	0.13289
3021.41	0.11683
3009.05	0.10678
2996.7	0.10798
2984.34	0.11676
2971.98	0.11517
2959.62	0.11499
2947.27	0.12130
2934.91	0.13472
2922.55	0.12344
2910.19	0.09733
2897.84	0.08306
2885.48	0.07966
2873.12	0.07854
2860.76	0.06858
2848.41	0.06692
2836.05	0.05797
2823.69	0.05554
2811.33	0.05269
2798.98	0.04871
2786.62	0.04439
2774.26	0.04020
2761.9	0.03650
2749.55	0.03455
2737.19	0.03116
2724.83	0.02963
2712.47	0.02811
2700.12	0.02678
2687.76	0.02565
2675.4	0.02495
2663.04	0.02396
2650.69	0.02340
2638.33	0.02299
2625.97	0.02247
2613.61	0.02103
2601.26	0.01997
2588.9	0.01871
2576.54	0.01739
2564.18	0.01596
2551.83	0.01502
2539.47	0.01444
2527.11	0.01488
2514.75	0.01411
2502.4	0.01495
2490.04	0.01288
2477.68	0.01324
2465.32	0.01284
2452.97	0.01230
2440.61	0.01233
2428.25	0.01157
2415.89	0.01170
2403.54	0.01057
2391.18	0.01105
2378.82	0.00960
2366.46	0.00813
2354.11	0.00940
2341.75	0.01202
2329.39	0.00828
2317.03	0.01329
2304.68	0.01229
2292.32	0.01128
2279.96	0.01069
2267.6	0.01141
2255.25	0.01070
2242.89	0.01018
2230.53	0.01054
2218.17	0.01019
2205.82	0.01184
2193.46	0.01195
2181.1	0.01057
2168.74	0.01123
2156.39	0.00879
2144.03	0.00809
2131.67	0.01007
2119.31	0.01133
2106.96	0.01239
2094.6	0.01100
2082.24	0.01073
2069.88	0.01078
2057.53	0.01023
2045.17	0.00771
2032.81	0.00677
2020.45	0.00591
2008.1	0.00884
1995.74	0.00729
1983.38	0.00949
1971.02	0.00556
1958.67	0.00718
1946.31	0.00618
1933.95	0.00685
1921.59	0.00730
1909.24	0.00803
1896.88	0.00811
1884.52	0.00882
1872.16	0.00788
1859.81	0.00806
1847.45	0.00793
1835.09	0.00875
1822.73	0.00932
1810.38	0.01077
1798.02	0.01072
1785.66	0.01211
1773.3	0.01442
1760.95	0.01535
1748.59	0.01763
1736.23	0.01906
1723.87	0.02502
1711.52	0.04192
1699.16	0.10179
1686.8	0.18164
1674.44	0.27917
1662.09	0.39302
1649.73	0.50000
1637.37	0.55259
1625.01	0.49224
1612.66	0.34615
1600.3	0.22760
1587.94	0.19158
1575.58	0.22185
1563.23	0.29035
1550.87	0.39095
1538.51	0.46832
1526.15	0.49595
1513.8	0.52340
1501.44	0.43054
1489.08	0.29666
1476.72	0.21836
1464.37	0.20841
1452.01	0.23527
1439.65	0.19961
1427.29	0.17478
1414.94	0.20642
1402.58	0.19892
1390.22	0.19400
1377.86	0.20324
1365.5	0.17027
1353.15	0.14617
1340.79	0.16871
1328.43	0.17317
1316.07	0.15144
1303.72	0.15781
1291.36	0.16869
1279	0.18025
1266.64	0.20579
1254.29	0.23517
1241.93	0.27226
1229.57	0.27770
1217.21	0.21972
1204.86	0.15879
1192.5	0.12564
1180.14	0.12604
1167.78	0.14139
1155.43	0.13044
1143.07	0.11135
1130.71	0.10287
1118.35	0.10241
1106	0.10274
1093.64	0.09538
1081.28	0.11298
1068.92	0.12628
1056.57	0.13091
1044.21	0.11489
1031.85	0.10212
1019.49	0.10784
1007.14	0.10151
994.78	0.07082
982.422	0.05876
970.065	0.05823
957.707	0.06359
945.35	0.06721
932.992	0.06175
920.635	0.05520
908.277	0.05071
895.92	0.04936
883.562	0.05017
871.205	0.05247
858.847	0.06144
846.49	0.06624
834.132	0.07313
821.774	0.07503
809.417	0.07908
797.059	0.08326
784.702	0.08820
772.344	0.09451
759.987	0.10261
747.629	0.11207
735.272	0.12081
722.914	0.12903
710.557	0.13732
698.199	0.14697
685.842	0.15409
673.484	0.16205
661.127	0.16712
648.769	0.16879
636.412	0.16955
624.054	0.16924
611.697	0.16897
599.339	0.17024
586.982	0.17314
574.624	0.17918
562.267	0.18781
549.909	0.19546
537.552	0.19809
525.194	0.19504
512.837	0.19328
500.479	0.19060
488.122	0.18776
475.764	0.18110
463.407	0.17364
451.049	0.16595
438.692	0.15998
426.334	0.15484
413.977	0.15071
401.619	0.14684
399.56	0.14629