Folder: Data/FTIR/db-LASE IR data/AgNPr-LASE lasered at 85C

Note: FTIR/README
YargerLab FT-IR Data Repo

File: Silk AgNPr film 85C 2 8.26.22.dpt
3997.65	-0.00465
3985.3	-0.00316
3972.94	-0.00340
3960.58	-0.00328
3948.22	-0.00535
3935.87	-0.00530
3923.51	-0.00373
3911.15	-0.00359
3898.79	-0.00380
3886.44	-0.00398
3874.08	-0.00205
3861.72	-0.00192
3849.36	-0.00182
3837.01	-0.00484
3824.65	-0.00346
3812.29	-0.00448
3799.93	-0.00446
3787.58	-0.00365
3775.22	-0.00317
3762.86	-0.00293
3750.5	-0.00237
3738.15	0.00002
3725.79	-0.00233
3713.43	-0.00190
3701.07	-0.00095
3688.72	-0.00046
3676.36	0.00070
3664	0.00399
3651.64	0.00705
3639.29	0.01205
3626.93	0.01793
3614.57	0.02393
3602.21	0.03040
3589.86	0.03709
3577.5	0.04345
3565.14	0.05354
3552.78	0.06018
3540.43	0.06749
3528.07	0.07439
3515.71	0.08103
3503.35	0.08801
3491	0.09244
3478.64	0.09745
3466.28	0.10105
3453.92	0.10478
3441.57	0.10902
3429.21	0.11290
3416.85	0.11940
3404.49	0.12587
3392.14	0.13382
3379.78	0.14251
3367.42	0.14995
3355.06	0.16239
3342.71	0.17251
3330.35	0.18494
3317.99	0.19808
3305.63	0.21133
3293.28	0.22219
3280.92	0.22550
3268.56	0.22448
3256.2	0.21421
3243.85	0.20275
3231.49	0.19126
3219.13	0.17907
3206.77	0.16604
3194.42	0.15131
3182.06	0.13757
3169.7	0.12218
3157.34	0.10954
3144.99	0.09800
3132.63	0.09214
3120.27	0.08973
3107.91	0.08993
3095.56	0.09383
3083.2	0.09976
3070.84	0.10040
3058.48	0.09655
3046.13	0.08690
3033.77	0.07638
3021.41	0.06744
3009.05	0.06078
2996.7	0.06127
2984.34	0.06654
2971.98	0.06382
2959.62	0.05850
2947.27	0.06336
2934.91	0.06652
2922.55	0.03152
2910.19	0.02165
2897.84	0.03243
2885.48	0.03494
2873.12	0.03557
2860.76	0.02830
2848.41	-0.00522
2836.05	0.02527
2823.69	0.02642
2811.33	0.02612
2798.98	0.02448
2786.62	0.02220
2774.26	0.01974
2761.9	0.01771
2749.55	0.01602
2737.19	0.01456
2724.83	0.01359
2712.47	0.01240
2700.12	0.01189
2687.76	0.01144
2675.4	0.01120
2663.04	0.01065
2650.69	0.01054
2638.33	0.01047
2625.97	0.00999
2613.61	0.00940
2601.26	0.00832
2588.9	0.00834
2576.54	0.00704
2564.18	0.00651
2551.83	0.00594
2539.47	0.00635
2527.11	0.00604
2514.75	0.00573
2502.4	0.00443
2490.04	0.00537
2477.68	0.00470
2465.32	0.00435
2452.97	0.00421
2440.61	0.00473
2428.25	0.00458
2415.89	0.00369
2403.54	0.00389
2391.18	0.00380
2378.82	0.00328
2366.46	0.00407
2354.11	0.00404
2341.75	0.00344
2329.39	0.00451
2317.03	0.00509
2304.68	0.00588
2292.32	0.00500
2279.96	0.00452
2267.6	0.00559
2255.25	0.00444
2242.89	0.00477
2230.53	0.00531
2218.17	0.00381
2205.82	0.00645
2193.46	0.00385
2181.1	0.00520
2168.74	0.00499
2156.39	0.00502
2144.03	0.00409
2131.67	0.00400
2119.31	0.00593
2106.96	0.00677
2094.6	0.00560
2082.24	0.00540
2069.88	0.00491
2057.53	0.00459
2045.17	0.00402
2032.81	0.00387
2020.45	0.00505
2008.1	0.00438
1995.74	0.00410
1983.38	0.00435
1971.02	0.00426
1958.67	0.00336
1946.31	0.00353
1933.95	0.00378
1921.59	0.00277
1909.24	0.00349
1896.88	0.00434
1884.52	0.00415
1872.16	0.00423
1859.81	0.00396
1847.45	0.00432
1835.09	0.00506
1822.73	0.00553
1810.38	0.00603
1798.02	0.00671
1785.66	0.00748
1773.3	0.00831
1760.95	0.00964
1748.59	0.01116
1736.23	0.01314
1723.87	0.01699
1711.52	0.03022
1699.16	0.07123
1686.8	0.12659
1674.44	0.19101
1662.09	0.26165
1649.73	0.32526
1637.37	0.34767
1625.01	0.31140
1612.66	0.22536
1600.3	0.14989
1587.94	0.12756
1575.58	0.14286
1563.23	0.19249
1550.87	0.25440
1538.51	0.29303
1526.15	0.31754
1513.8	0.33544
1501.44	0.28272
1489.08	0.19829
1476.72	0.14272
1464.37	0.13407
1452.01	0.15582
1439.65	0.13432
1427.29	0.11712
1414.94	0.13793
1402.58	0.13482
1390.22	0.13260
1377.86	0.13704
1365.5	0.11633
1353.15	0.09989
1340.79	0.11384
1328.43	0.11700
1316.07	0.10315
1303.72	0.10765
1291.36	0.11518
1279	0.12263
1266.64	0.13952
1254.29	0.15900
1241.93	0.18310
1229.57	0.18761
1217.21	0.15072
1204.86	0.10968
1192.5	0.08670
1180.14	0.08734
1167.78	0.09840
1155.43	0.09094
1143.07	0.07778
1130.71	0.07149
1118.35	0.07095
1106	0.07055
1093.64	0.06630
1081.28	0.07825
1068.92	0.08821
1056.57	0.09056
1044.21	0.07924
1031.85	0.07049
1019.49	0.07392
1007.14	0.07032
994.78	0.04961
982.422	0.04175
970.065	0.04109
957.707	0.04503
945.35	0.04794
932.992	0.04429
920.635	0.04018
908.277	0.03686
895.92	0.03538
883.562	0.03605
871.205	0.03778
858.847	0.04402
846.49	0.04803
834.132	0.05300
821.774	0.05390
809.417	0.05698
797.059	0.05973
784.702	0.06392
772.344	0.06890
759.987	0.07450
747.629	0.08197
735.272	0.08859
722.914	0.09433
710.557	0.10123
698.199	0.10864
685.842	0.11440
673.484	0.11980
661.127	0.12378
648.769	0.12552
636.412	0.12613
624.054	0.12643
611.697	0.12651
599.339	0.12774
586.982	0.13002
574.624	0.13489
562.267	0.14063
549.909	0.14766
537.552	0.14919
525.194	0.14841
512.837	0.14797
500.479	0.14665
488.122	0.14411
475.764	0.14012
463.407	0.13455
451.049	0.12924
438.692	0.12518
426.334	0.12276
413.977	0.11954
401.619	0.11788
399.56	0.11841

File: Silk AgNPr film 85C 2 9.22.22.dpt
3997.65	0.00917
3985.3	0.00921
3972.94	0.00992
3960.58	0.00882
3948.22	0.00997
3935.87	0.00974
3923.51	0.00911
3911.15	0.00939
3898.79	0.00966
3886.44	0.00891
3874.08	0.00835
3861.72	0.00910
3849.36	0.00836
3837.01	0.00635
3824.65	0.00899
3812.29	0.00819
3799.93	0.00748
3787.58	0.00832
3775.22	0.00883
3762.86	0.00862
3750.5	0.00714
3738.15	0.00988
3725.79	0.00970
3713.43	0.00976
3701.07	0.01030
3688.72	0.01145
3676.36	0.01279
3664	0.01408
3651.64	0.01855
3639.29	0.02156
3626.93	0.02585
3614.57	0.03191
3602.21	0.03502
3589.86	0.04386
3577.5	0.04834
3565.14	0.05589
3552.78	0.06191
3540.43	0.06708
3528.07	0.07245
3515.71	0.07725
3503.35	0.08209
3491	0.08660
3478.64	0.09023
3466.28	0.09315
3453.92	0.09580
3441.57	0.09944
3429.21	0.10212
3416.85	0.10612
3404.49	0.11187
3392.14	0.11652
3379.78	0.12141
3367.42	0.12702
3355.06	0.13345
3342.71	0.14260
3330.35	0.15493
3317.99	0.16900
3305.63	0.18772
3293.28	0.20761
3280.92	0.22153
3268.56	0.21715
3256.2	0.20179
3243.85	0.18495
3231.49	0.17284
3219.13	0.15965
3206.77	0.14885
3194.42	0.13721
3182.06	0.12460
3169.7	0.11274
3157.34	0.10178
3144.99	0.09257
3132.63	0.08720
3120.27	0.08443
3107.91	0.08567
3095.56	0.08900
3083.2	0.09232
3070.84	0.09296
3058.48	0.08921
3046.13	0.08017
3033.77	0.07176
3021.41	0.06406
3009.05	0.06003
2996.7	0.06045
2984.34	0.06426
2971.98	0.06333
2959.62	0.06148
2947.27	0.06233
2934.91	0.06691
2922.55	0.06102
2910.19	0.05151
2897.84	0.04713
2885.48	0.04522
2873.12	0.04469
2860.76	0.03948
2848.41	0.03671
2836.05	0.03366
2823.69	0.03311
2811.33	0.03172
2798.98	0.03045
2786.62	0.02859
2774.26	0.02660
2761.9	0.02527
2749.55	0.02312
2737.19	0.02199
2724.83	0.02097
2712.47	0.02031
2700.12	0.01943
2687.76	0.01835
2675.4	0.01772
2663.04	0.01815
2650.69	0.01777
2638.33	0.01731
2625.97	0.01698
2613.61	0.01633
2601.26	0.01535
2588.9	0.01428
2576.54	0.01414
2564.18	0.01250
2551.83	0.01249
2539.47	0.01215
2527.11	0.01187
2514.75	0.01110
2502.4	0.01130
2490.04	0.01155
2477.68	0.01087
2465.32	0.01126
2452.97	0.01069
2440.61	0.01089
2428.25	0.01013
2415.89	0.01016
2403.54	0.00997
2391.18	0.00979
2378.82	0.00968
2366.46	0.00936
2354.11	0.01075
2341.75	0.01056
2329.39	0.01126
2317.03	0.01125
2304.68	0.01021
2292.32	0.01049
2279.96	0.01004
2267.6	0.00826
2255.25	0.00923
2242.89	0.00803
2230.53	0.00764
2218.17	0.00843
2205.82	0.00749
2193.46	0.00880
2181.1	0.00601
2168.74	0.00961
2156.39	0.00353
2144.03	0.00410
2131.67	0.00524
2119.31	0.00775
2106.96	0.00832
2094.6	0.00751
2082.24	0.00832
2069.88	0.00750
2057.53	0.00775
2045.17	0.00682
2032.81	0.00734
2020.45	0.00283
2008.1	0.00446
1995.74	0.00525
1983.38	0.00787
1971.02	0.00372
1958.67	0.00473
1946.31	0.00588
1933.95	0.00544
1921.59	0.00638
1909.24	0.00524
1896.88	0.00601
1884.52	0.00662
1872.16	0.00618
1859.81	0.00640
1847.45	0.00646
1835.09	0.00677
1822.73	0.00692
1810.38	0.00746
1798.02	0.00825
1785.66	0.00802
1773.3	0.00898
1760.95	0.00913
1748.59	0.01031
1736.23	0.01145
1723.87	0.01367
1711.52	0.02345
1699.16	0.06066
1686.8	0.07712
1674.44	0.10275
1662.09	0.12934
1649.73	0.15281
1637.37	0.16570
1625.01	0.19064
1612.66	0.18056
1600.3	0.12062
1587.94	0.08999
1575.58	0.09121
1563.23	0.11208
1550.87	0.13810
1538.51	0.16261
1526.15	0.17885
1513.8	0.18926
1501.44	0.16803
1489.08	0.12833
1476.72	0.09906
1464.37	0.09233
1452.01	0.10596
1439.65	0.10554
1427.29	0.08826
1414.94	0.09120
1402.58	0.09106
1390.22	0.08713
1377.86	0.08564
1365.5	0.07919
1353.15	0.06917
1340.79	0.07180
1328.43	0.07050
1316.07	0.06546
1303.72	0.06544
1291.36	0.06651
1279	0.07079
1266.64	0.08281
1254.29	0.08923
1241.93	0.09745
1229.57	0.10337
1217.21	0.08980
1204.86	0.06895
1192.5	0.05545
1180.14	0.05422
1167.78	0.06135
1155.43	0.05814
1143.07	0.04917
1130.71	0.04511
1118.35	0.04378
1106	0.04461
1093.64	0.04424
1081.28	0.05140
1068.92	0.05764
1056.57	0.05656
1044.21	0.05141
1031.85	0.04607
1019.49	0.04426
1007.14	0.04463
994.78	0.04092
982.422	0.03587
970.065	0.03503
957.707	0.03233
945.35	0.03152
932.992	0.03022
920.635	0.02779
908.277	0.02545
895.92	0.02482
883.562	0.02455
871.205	0.02510
858.847	0.02727
846.49	0.02884
834.132	0.03036
821.774	0.03114
809.417	0.03155
797.059	0.03241
784.702	0.03450
772.344	0.03717
759.987	0.03994
747.629	0.04316
735.272	0.04744
722.914	0.05188
710.557	0.05529
698.199	0.05891
685.842	0.06087
673.484	0.06156
661.127	0.06241
648.769	0.06310
636.412	0.06404
624.054	0.06400
611.697	0.06431
599.339	0.06299
586.982	0.06232
574.624	0.06200
562.267	0.06419
549.909	0.06887
537.552	0.06847
525.194	0.06753
512.837	0.06545
500.479	0.06445
488.122	0.06292
475.764	0.06118
463.407	0.05932
451.049	0.05786
438.692	0.05650
426.334	0.05620
413.977	0.05578
401.619	0.05209
399.56	0.05216

File: Silk AgNPr film 85C 8.26.22.dpt
3997.65	-0.00145
3985.3	0.00019
3972.94	0.00023
3960.58	-0.00080
3948.22	-0.00259
3935.87	-0.00115
3923.51	-0.00176
3911.15	-0.00056
3898.79	0.00001
3886.44	-0.00201
3874.08	-0.00076
3861.72	0.00081
3849.36	0.00320
3837.01	-0.00404
3824.65	0.00073
3812.29	-0.00015
3799.93	-0.00243
3787.58	-0.00139
3775.22	0.00040
3762.86	0.00124
3750.5	-0.00220
3738.15	0.00544
3725.79	0.00188
3713.43	-0.00153
3701.07	-0.00034
3688.72	-0.00075
3676.36	0.00290
3664	0.01373
3651.64	0.02034
3639.29	0.02713
3626.93	0.03859
3614.57	0.05109
3602.21	0.06006
3589.86	0.07261
3577.5	0.08327
3565.14	0.09868
3552.78	0.11085
3540.43	0.12603
3528.07	0.13767
3515.71	0.14980
3503.35	0.15955
3491	0.16925
3478.64	0.17628
3466.28	0.18380
3453.92	0.19143
3441.57	0.19770
3429.21	0.20476
3416.85	0.21554
3404.49	0.22782
3392.14	0.23959
3379.78	0.25304
3367.42	0.26812
3355.06	0.28851
3342.71	0.31303
3330.35	0.34783
3317.99	0.39287
3305.63	0.45002
3293.28	0.51736
3280.92	0.56557
3268.56	0.54903
3256.2	0.49035
3243.85	0.43679
3231.49	0.39531
3219.13	0.36088
3206.77	0.32792
3194.42	0.29500
3182.06	0.26307
3169.7	0.23223
3157.34	0.20469
3144.99	0.18440
3132.63	0.17166
3120.27	0.16714
3107.91	0.16979
3095.56	0.17707
3083.2	0.18715
3070.84	0.18886
3058.48	0.17867
3046.13	0.15817
3033.77	0.13738
3021.41	0.12011
3009.05	0.10970
2996.7	0.11283
2984.34	0.12535
2971.98	0.12525
2959.62	0.11489
2947.27	0.11829
2934.91	0.13027
2922.55	0.09421
2910.19	0.07195
2897.84	0.07494
2885.48	0.07546
2873.12	0.07727
2860.76	0.06317
2848.41	0.02801
2836.05	0.05092
2823.69	0.05128
2811.33	0.05019
2798.98	0.04748
2786.62	0.04418
2774.26	0.04018
2761.9	0.03581
2749.55	0.03281
2737.19	0.02958
2724.83	0.02760
2712.47	0.02490
2700.12	0.02378
2687.76	0.02275
2675.4	0.02188
2663.04	0.02072
2650.69	0.02016
2638.33	0.01973
2625.97	0.01974
2613.61	0.01812
2601.26	0.01660
2588.9	0.01586
2576.54	0.01402
2564.18	0.01294
2551.83	0.01213
2539.47	0.01152
2527.11	0.01079
2514.75	0.01099
2502.4	0.00987
2490.04	0.01011
2477.68	0.00917
2465.32	0.00933
2452.97	0.00895
2440.61	0.00927
2428.25	0.00888
2415.89	0.00781
2403.54	0.00734
2391.18	0.00723
2378.82	0.00748
2366.46	0.00670
2354.11	0.00754
2341.75	0.00770
2329.39	0.00848
2317.03	0.00940
2304.68	0.00947
2292.32	0.00777
2279.96	0.00857
2267.6	0.00826
2255.25	0.00689
2242.89	0.00734
2230.53	0.00733
2218.17	0.00758
2205.82	0.00826
2193.46	0.00679
2181.1	0.00632
2168.74	0.00713
2156.39	0.00693
2144.03	0.00770
2131.67	0.00685
2119.31	0.00873
2106.96	0.00898
2094.6	0.00901
2082.24	0.00855
2069.88	0.00808
2057.53	0.00752
2045.17	0.00773
2032.81	0.00595
2020.45	0.00676
2008.1	0.00544
1995.74	0.00740
1983.38	0.00677
1971.02	0.00564
1958.67	0.00481
1946.31	0.00613
1933.95	0.00675
1921.59	0.00633
1909.24	0.00621
1896.88	0.00702
1884.52	0.00744
1872.16	0.00760
1859.81	0.00755
1847.45	0.00775
1835.09	0.00860
1822.73	0.00990
1810.38	0.00964
1798.02	0.01186
1785.66	0.01319
1773.3	0.01314
1760.95	0.01567
1748.59	0.01834
1736.23	0.02263
1723.87	0.02890
1711.52	0.05400
1699.16	0.14875
1686.8	0.19910
1674.44	0.28251
1662.09	0.37943
1649.73	0.47790
1637.37	0.52209
1625.01	0.63444
1612.66	0.59009
1600.3	0.33619
1587.94	0.23206
1575.58	0.23377
1563.23	0.31286
1550.87	0.41312
1538.51	0.51025
1526.15	0.59066
1513.8	0.64707
1501.44	0.54373
1489.08	0.37280
1476.72	0.26778
1464.37	0.24289
1452.01	0.29491
1439.65	0.29491
1427.29	0.23309
1414.94	0.24652
1402.58	0.24826
1390.22	0.23549
1377.86	0.22997
1365.5	0.20795
1353.15	0.17542
1340.79	0.18578
1328.43	0.18523
1316.07	0.16663
1303.72	0.16725
1291.36	0.17110
1279	0.18554
1266.64	0.22694
1254.29	0.24708
1241.93	0.27822
1229.57	0.30271
1217.21	0.25394
1204.86	0.18101
1192.5	0.13765
1180.14	0.13294
1167.78	0.15781
1155.43	0.14706
1143.07	0.11737
1130.71	0.10375
1118.35	0.10010
1106	0.10181
1093.64	0.10030
1081.28	0.12360
1068.92	0.14510
1056.57	0.14348
1044.21	0.12688
1031.85	0.10927
1019.49	0.10352
1007.14	0.10235
994.78	0.09193
982.422	0.07568
970.065	0.07568
957.707	0.06858
945.35	0.06738
932.992	0.06392
920.635	0.05816
908.277	0.05126
895.92	0.04962
883.562	0.05005
871.205	0.05083
858.847	0.05770
846.49	0.06283
834.132	0.06912
821.774	0.07099
809.417	0.07342
797.059	0.07550
784.702	0.08240
772.344	0.09198
759.987	0.09997
747.629	0.11031
735.272	0.12479
722.914	0.13969
710.557	0.15219
698.199	0.16530
685.842	0.17264
673.484	0.17531
661.127	0.17850
648.769	0.18235
636.412	0.18341
624.054	0.18282
611.697	0.18516
599.339	0.17995
586.982	0.17623
574.624	0.17658
562.267	0.18311
549.909	0.20147
537.552	0.19960
525.194	0.19088
512.837	0.18611
500.479	0.17984
488.122	0.17661
475.764	0.16914
463.407	0.15957
451.049	0.15365
438.692	0.14981
426.334	0.15119
413.977	0.14468
401.619	0.13835
399.56	0.13631

File: Silk AgNPr film 85C 9.22.22.dpt
3997.65	0.00878
3985.3	0.00807
3972.94	0.00805
3960.58	0.00829
3948.22	0.00849
3935.87	0.00834
3923.51	0.00757
3911.15	0.00825
3898.79	0.00760
3886.44	0.00737
3874.08	0.00683
3861.72	0.00756
3849.36	0.00624
3837.01	0.00495
3824.65	0.00746
3812.29	0.00656
3799.93	0.00601
3787.58	0.00724
3775.22	0.00780
3762.86	0.00718
3750.5	0.00795
3738.15	0.00961
3725.79	0.00966
3713.43	0.00796
3701.07	0.00905
3688.72	0.00940
3676.36	0.00975
3664	0.01402
3651.64	0.01983
3639.29	0.02377
3626.93	0.02881
3614.57	0.03731
3602.21	0.04192
3589.86	0.05218
3577.5	0.05953
3565.14	0.07013
3552.78	0.07687
3540.43	0.08518
3528.07	0.09256
3515.71	0.09922
3503.35	0.10574
3491	0.11123
3478.64	0.11592
3466.28	0.12041
3453.92	0.12361
3441.57	0.12765
3429.21	0.13248
3416.85	0.13894
3404.49	0.14705
3392.14	0.15485
3379.78	0.16321
3367.42	0.17386
3355.06	0.18435
3342.71	0.19632
3330.35	0.20913
3317.99	0.22323
3305.63	0.23506
3293.28	0.24522
3280.92	0.24901
3268.56	0.24601
3256.2	0.23729
3243.85	0.22333
3231.49	0.21108
3219.13	0.19791
3206.77	0.18441
3194.42	0.16924
3182.06	0.15268
3169.7	0.13724
3157.34	0.12354
3144.99	0.11201
3132.63	0.10483
3120.27	0.10233
3107.91	0.10340
3095.56	0.10716
3083.2	0.11295
3070.84	0.11388
3058.48	0.10973
3046.13	0.10008
3033.77	0.08852
3021.41	0.07810
3009.05	0.07233
2996.7	0.07303
2984.34	0.07775
2971.98	0.07559
2959.62	0.07488
2947.27	0.07818
2934.91	0.08469
2922.55	0.07365
2910.19	0.06068
2897.84	0.05475
2885.48	0.05255
2873.12	0.05024
2860.76	0.04398
2848.41	0.04116
2836.05	0.03909
2823.69	0.03805
2811.33	0.03630
2798.98	0.03412
2786.62	0.03087
2774.26	0.02843
2761.9	0.02611
2749.55	0.02396
2737.19	0.02215
2724.83	0.02090
2712.47	0.01992
2700.12	0.01954
2687.76	0.01864
2675.4	0.01781
2663.04	0.01769
2650.69	0.01756
2638.33	0.01706
2625.97	0.01644
2613.61	0.01569
2601.26	0.01492
2588.9	0.01358
2576.54	0.01254
2564.18	0.01254
2551.83	0.01099
2539.47	0.01074
2527.11	0.01113
2514.75	0.01093
2502.4	0.01089
2490.04	0.01010
2477.68	0.00948
2465.32	0.00970
2452.97	0.00930
2440.61	0.00884
2428.25	0.00852
2415.89	0.00883
2403.54	0.00844
2391.18	0.00883
2378.82	0.00881
2366.46	0.00926
2354.11	0.00919
2341.75	0.00906
2329.39	0.01177
2317.03	0.00864
2304.68	0.00846
2292.32	0.00919
2279.96	0.00960
2267.6	0.00737
2255.25	0.00812
2242.89	0.00752
2230.53	0.00719
2218.17	0.00751
2205.82	0.00863
2193.46	0.00902
2181.1	0.00660
2168.74	0.00841
2156.39	0.00306
2144.03	0.00561
2131.67	0.00641
2119.31	0.00804
2106.96	0.00881
2094.6	0.00790
2082.24	0.00847
2069.88	0.00699
2057.53	0.00773
2045.17	0.00704
2032.81	0.00429
2020.45	0.00254
2008.1	0.00500
1995.74	0.00547
1983.38	0.00881
1971.02	0.00488
1958.67	0.00404
1946.31	0.00608
1933.95	0.00518
1921.59	0.00573
1909.24	0.00540
1896.88	0.00588
1884.52	0.00626
1872.16	0.00591
1859.81	0.00609
1847.45	0.00600
1835.09	0.00681
1822.73	0.00680
1810.38	0.00732
1798.02	0.00809
1785.66	0.00848
1773.3	0.00944
1760.95	0.01051
1748.59	0.01163
1736.23	0.01358
1723.87	0.01710
1711.52	0.02942
1699.16	0.06901
1686.8	0.11822
1674.44	0.17534
1662.09	0.23672
1649.73	0.29034
1637.37	0.31282
1625.01	0.28391
1612.66	0.21025
1600.3	0.14354
1587.94	0.12100
1575.58	0.13535
1563.23	0.17587
1550.87	0.22882
1538.51	0.26796
1526.15	0.28397
1513.8	0.30011
1501.44	0.26174
1489.08	0.19274
1476.72	0.14234
1464.37	0.13361
1452.01	0.14970
1439.65	0.13111
1427.29	0.11502
1414.94	0.13143
1402.58	0.12759
1390.22	0.12471
1377.86	0.12927
1365.5	0.11143
1353.15	0.09678
1340.79	0.10894
1328.43	0.11215
1316.07	0.09932
1303.72	0.10260
1291.36	0.10887
1279	0.11568
1266.64	0.12993
1254.29	0.14613
1241.93	0.16622
1229.57	0.17152
1217.21	0.14413
1204.86	0.10906
1192.5	0.08708
1180.14	0.08564
1167.78	0.09464
1155.43	0.08935
1143.07	0.07753
1130.71	0.07122
1118.35	0.06954
1106	0.06922
1093.64	0.06514
1081.28	0.07500
1068.92	0.08376
1056.57	0.08607
1044.21	0.07697
1031.85	0.06894
1019.49	0.07156
1007.14	0.06953
994.78	0.05063
982.422	0.04250
970.065	0.04203
957.707	0.04484
945.35	0.04687
932.992	0.04346
920.635	0.03929
908.277	0.03582
895.92	0.03457
883.562	0.03433
871.205	0.03596
858.847	0.04152
846.49	0.04537
834.132	0.04898
821.774	0.04987
809.417	0.05199
797.059	0.05457
784.702	0.05739
772.344	0.06142
759.987	0.06645
747.629	0.07230
735.272	0.07789
722.914	0.08291
710.557	0.08861
698.199	0.09493
685.842	0.09983
673.484	0.10396
661.127	0.10700
648.769	0.10877
636.412	0.10942
624.054	0.10940
611.697	0.10945
599.339	0.11008
586.982	0.11260
574.624	0.11544
562.267	0.12142
549.909	0.12615
537.552	0.12801
525.194	0.12673
512.837	0.12667
500.479	0.12499
488.122	0.12299
475.764	0.11960
463.407	0.11564
451.049	0.11082
438.692	0.10759
426.334	0.10400
413.977	0.10327
401.619	0.09885
399.56	0.09782