Folder: Data/FTIR/db-LASE IR data/AgNPr-LASE lasered at 45C

Note: FTIR/README
YargerLab FT-IR Data Repo

File: Silk AgNPr film 45C 2 8.26.22.dpt
3997.65	-0.00239
3985.3	-0.00237
3972.94	-0.00174
3960.58	-0.00223
3948.22	-0.00348
3935.87	-0.00287
3923.51	-0.00281
3911.15	-0.00164
3898.79	-0.00201
3886.44	-0.00190
3874.08	-0.00174
3861.72	-0.00144
3849.36	-0.00117
3837.01	-0.00370
3824.65	-0.00229
3812.29	-0.00295
3799.93	-0.00258
3787.58	-0.00163
3775.22	-0.00108
3762.86	-0.00173
3750.5	-0.00077
3738.15	0.00130
3725.79	-0.00076
3713.43	0.00013
3701.07	-0.00111
3688.72	0.00147
3676.36	0.00078
3664	0.00392
3651.64	0.00878
3639.29	0.01112
3626.93	0.01860
3614.57	0.02281
3602.21	0.02906
3589.86	0.03450
3577.5	0.03999
3565.14	0.04787
3552.78	0.05561
3540.43	0.06177
3528.07	0.06756
3515.71	0.07373
3503.35	0.07930
3491	0.08370
3478.64	0.08811
3466.28	0.09212
3453.92	0.09483
3441.57	0.09734
3429.21	0.10142
3416.85	0.10668
3404.49	0.11240
3392.14	0.11966
3379.78	0.12596
3367.42	0.13202
3355.06	0.14307
3342.71	0.15105
3330.35	0.16082
3317.99	0.17178
3305.63	0.18299
3293.28	0.19129
3280.92	0.19348
3268.56	0.19261
3256.2	0.18531
3243.85	0.17706
3231.49	0.16723
3219.13	0.15680
3206.77	0.14658
3194.42	0.13489
3182.06	0.12292
3169.7	0.10958
3157.34	0.09755
3144.99	0.08813
3132.63	0.08256
3120.27	0.07994
3107.91	0.08054
3095.56	0.08344
3083.2	0.08830
3070.84	0.08895
3058.48	0.08573
3046.13	0.07766
3033.77	0.06898
3021.41	0.06056
3009.05	0.05463
2996.7	0.05457
2984.34	0.05988
2971.98	0.05815
2959.62	0.05638
2947.27	0.06006
2934.91	0.06542
2922.55	0.04983
2910.19	0.03724
2897.84	0.03748
2885.48	0.03612
2873.12	0.03571
2860.76	0.03090
2848.41	0.01815
2836.05	0.02603
2823.69	0.02568
2811.33	0.02451
2798.98	0.02295
2786.62	0.02074
2774.26	0.01845
2761.9	0.01653
2749.55	0.01491
2737.19	0.01378
2724.83	0.01328
2712.47	0.01129
2700.12	0.01118
2687.76	0.01094
2675.4	0.01080
2663.04	0.01044
2650.69	0.01054
2638.33	0.00973
2625.97	0.00954
2613.61	0.00890
2601.26	0.00751
2588.9	0.00788
2576.54	0.00695
2564.18	0.00568
2551.83	0.00606
2539.47	0.00559
2527.11	0.00560
2514.75	0.00539
2502.4	0.00414
2490.04	0.00477
2477.68	0.00416
2465.32	0.00460
2452.97	0.00438
2440.61	0.00415
2428.25	0.00433
2415.89	0.00337
2403.54	0.00362
2391.18	0.00373
2378.82	0.00430
2366.46	0.00819
2354.11	0.00784
2341.75	0.00706
2329.39	0.00696
2317.03	0.00720
2304.68	0.00620
2292.32	0.00483
2279.96	0.00491
2267.6	0.00526
2255.25	0.00387
2242.89	0.00472
2230.53	0.00384
2218.17	0.00486
2205.82	0.00425
2193.46	0.00365
2181.1	0.00632
2168.74	0.00478
2156.39	0.00353
2144.03	0.00321
2131.67	0.00353
2119.31	0.00552
2106.96	0.00541
2094.6	0.00488
2082.24	0.00500
2069.88	0.00484
2057.53	0.00450
2045.17	0.00472
2032.81	0.00372
2020.45	0.00449
2008.1	0.00243
1995.74	0.00363
1983.38	0.00362
1971.02	0.00312
1958.67	0.00263
1946.31	0.00276
1933.95	0.00353
1921.59	0.00278
1909.24	0.00341
1896.88	0.00284
1884.52	0.00337
1872.16	0.00353
1859.81	0.00385
1847.45	0.00355
1835.09	0.00398
1822.73	0.00486
1810.38	0.00460
1798.02	0.00554
1785.66	0.00630
1773.3	0.00703
1760.95	0.00812
1748.59	0.00962
1736.23	0.01111
1723.87	0.01481
1711.52	0.02614
1699.16	0.05981
1686.8	0.10473
1674.44	0.15669
1662.09	0.21229
1649.73	0.26155
1637.37	0.27794
1625.01	0.24807
1612.66	0.18062
1600.3	0.12208
1587.94	0.10451
1575.58	0.11916
1563.23	0.15756
1550.87	0.20774
1538.51	0.24203
1526.15	0.25524
1513.8	0.26813
1501.44	0.22325
1489.08	0.15638
1476.72	0.11540
1464.37	0.11097
1452.01	0.12717
1439.65	0.10833
1427.29	0.09582
1414.94	0.11339
1402.58	0.11109
1390.22	0.10906
1377.86	0.11206
1365.5	0.09457
1353.15	0.08160
1340.79	0.09280
1328.43	0.09496
1316.07	0.08454
1303.72	0.08837
1291.36	0.09449
1279	0.10048
1266.64	0.11419
1254.29	0.13053
1241.93	0.14969
1229.57	0.15166
1217.21	0.12108
1204.86	0.08834
1192.5	0.07098
1180.14	0.07169
1167.78	0.08046
1155.43	0.07432
1143.07	0.06428
1130.71	0.05998
1118.35	0.05980
1106	0.06065
1093.64	0.05756
1081.28	0.06725
1068.92	0.07519
1056.57	0.07742
1044.21	0.06816
1031.85	0.06086
1019.49	0.06334
1007.14	0.05959
994.78	0.04239
982.422	0.03617
970.065	0.03532
957.707	0.03827
945.35	0.04088
932.992	0.03804
920.635	0.03443
908.277	0.03157
895.92	0.03026
883.562	0.03100
871.205	0.03242
858.847	0.03781
846.49	0.04084
834.132	0.04505
821.774	0.04587
809.417	0.04846
797.059	0.05086
784.702	0.05429
772.344	0.05843
759.987	0.06315
747.629	0.06932
735.272	0.07484
722.914	0.07986
710.557	0.08522
698.199	0.09145
685.842	0.09653
673.484	0.10133
661.127	0.10472
648.769	0.10614
636.412	0.10688
624.054	0.10685
611.697	0.10802
599.339	0.10909
586.982	0.11123
574.624	0.11536
562.267	0.12060
549.909	0.12663
537.552	0.12818
525.194	0.12766
512.837	0.12814
500.479	0.12685
488.122	0.12543
475.764	0.12126
463.407	0.11784
451.049	0.11359
438.692	0.10995
426.334	0.10751
413.977	0.10549
401.619	0.10384
399.56	0.10257

File: Silk AgNPr film 45C 2 9.22.22.dpt
3997.65	0.00317
3985.3	0.00171
3972.94	0.00181
3960.58	0.00279
3948.22	0.00030
3935.87	0.00126
3923.51	0.00214
3911.15	0.00088
3898.79	0.00058
3886.44	0.00064
3874.08	-0.00062
3861.72	0.00038
3849.36	0.00046
3837.01	0.00176
3824.65	0.00086
3812.29	0.00184
3799.93	0.00021
3787.58	0.00258
3775.22	0.00231
3762.86	0.00069
3750.5	0.00216
3738.15	0.00064
3725.79	0.00203
3713.43	0.00367
3701.07	0.00390
3688.72	0.00560
3676.36	0.00984
3664	0.01531
3651.64	0.02364
3639.29	0.03173
3626.93	0.04006
3614.57	0.05166
3602.21	0.06434
3589.86	0.07585
3577.5	0.08964
3565.14	0.10528
3552.78	0.11739
3540.43	0.13403
3528.07	0.14746
3515.71	0.15919
3503.35	0.17056
3491	0.17953
3478.64	0.18768
3466.28	0.19614
3453.92	0.20265
3441.57	0.20977
3429.21	0.21704
3416.85	0.22796
3404.49	0.23903
3392.14	0.25092
3379.78	0.26389
3367.42	0.27817
3355.06	0.29347
3342.71	0.31102
3330.35	0.33267
3317.99	0.35167
3305.63	0.37303
3293.28	0.38842
3280.92	0.39585
3268.56	0.39642
3256.2	0.38514
3243.85	0.36617
3231.49	0.34966
3219.13	0.33122
3206.77	0.30946
3194.42	0.28466
3182.06	0.25841
3169.7	0.23086
3157.34	0.20586
3144.99	0.18562
3132.63	0.17076
3120.27	0.16542
3107.91	0.16560
3095.56	0.17070
3083.2	0.17931
3070.84	0.18370
3058.48	0.17694
3046.13	0.16187
3033.77	0.14163
3021.41	0.12376
3009.05	0.11190
2996.7	0.11147
2984.34	0.11801
2971.98	0.11503
2959.62	0.11007
2947.27	0.11708
2934.91	0.12560
2922.55	0.09474
2910.19	0.06943
2897.84	0.06983
2885.48	0.06947
2873.12	0.06849
2860.76	0.05835
2848.41	0.03174
2836.05	0.05020
2823.69	0.05073
2811.33	0.04887
2798.98	0.04460
2786.62	0.04067
2774.26	0.03662
2761.9	0.03249
2749.55	0.03031
2737.19	0.02656
2724.83	0.02540
2712.47	0.02394
2700.12	0.02198
2687.76	0.02166
2675.4	0.02065
2663.04	0.01959
2650.69	0.01930
2638.33	0.01907
2625.97	0.01870
2613.61	0.01692
2601.26	0.01591
2588.9	0.01473
2576.54	0.01358
2564.18	0.01236
2551.83	0.01151
2539.47	0.01128
2527.11	0.01092
2514.75	0.01134
2502.4	0.01094
2490.04	0.01058
2477.68	0.01049
2465.32	0.01033
2452.97	0.00941
2440.61	0.00861
2428.25	0.00900
2415.89	0.00832
2403.54	0.00794
2391.18	0.00821
2378.82	0.00759
2366.46	0.00722
2354.11	0.00825
2341.75	0.00787
2329.39	0.00863
2317.03	0.00946
2304.68	0.00968
2292.32	0.00953
2279.96	0.00925
2267.6	0.00987
2255.25	0.00801
2242.89	0.00881
2230.53	0.00919
2218.17	0.00828
2205.82	0.01029
2193.46	0.01084
2181.1	0.01035
2168.74	0.00995
2156.39	0.00443
2144.03	0.00564
2131.67	0.00678
2119.31	0.00987
2106.96	0.01053
2094.6	0.00995
2082.24	0.00951
2069.88	0.00913
2057.53	0.00951
2045.17	0.00576
2032.81	0.00559
2020.45	0.00567
2008.1	0.00652
1995.74	0.00587
1983.38	0.00599
1971.02	0.00571
1958.67	0.00677
1946.31	0.00503
1933.95	0.00540
1921.59	0.00599
1909.24	0.00692
1896.88	0.00604
1884.52	0.00680
1872.16	0.00690
1859.81	0.00678
1847.45	0.00662
1835.09	0.00764
1822.73	0.00849
1810.38	0.00888
1798.02	0.01006
1785.66	0.01138
1773.3	0.01209
1760.95	0.01371
1748.59	0.01626
1736.23	0.01866
1723.87	0.02421
1711.52	0.04417
1699.16	0.10222
1686.8	0.17951
1674.44	0.27070
1662.09	0.37051
1649.73	0.46523
1637.37	0.50342
1625.01	0.44470
1612.66	0.31325
1600.3	0.20849
1587.94	0.17740
1575.58	0.20291
1563.23	0.27435
1550.87	0.36584
1538.51	0.43092
1526.15	0.45710
1513.8	0.47855
1501.44	0.38394
1489.08	0.25819
1476.72	0.18930
1464.37	0.18270
1452.01	0.21153
1439.65	0.17752
1427.29	0.15720
1414.94	0.18796
1402.58	0.18384
1390.22	0.18023
1377.86	0.18559
1365.5	0.15430
1353.15	0.13268
1340.79	0.15189
1328.43	0.15413
1316.07	0.13674
1303.72	0.14403
1291.36	0.15405
1279	0.16464
1266.64	0.18862
1254.29	0.21710
1241.93	0.25028
1229.57	0.25115
1217.21	0.19279
1204.86	0.13756
1192.5	0.11018
1180.14	0.11245
1167.78	0.12658
1155.43	0.11640
1143.07	0.10053
1130.71	0.09461
1118.35	0.09623
1106	0.09882
1093.64	0.09465
1081.28	0.11026
1068.92	0.12196
1056.57	0.12341
1044.21	0.10659
1031.85	0.09391
1019.49	0.09944
1007.14	0.09361
994.78	0.06715
982.422	0.05740
970.065	0.05548
957.707	0.05957
945.35	0.06370
932.992	0.05819
920.635	0.05193
908.277	0.04781
895.92	0.04634
883.562	0.04722
871.205	0.05027
858.847	0.05819
846.49	0.06267
834.132	0.06838
821.774	0.06934
809.417	0.07302
797.059	0.07655
784.702	0.08145
772.344	0.08745
759.987	0.09489
747.629	0.10380
735.272	0.11160
722.914	0.11903
710.557	0.12689
698.199	0.13560
685.842	0.14288
673.484	0.14951
661.127	0.15452
648.769	0.15660
636.412	0.15749
624.054	0.15638
611.697	0.15713
599.339	0.15823
586.982	0.16165
574.624	0.16745
562.267	0.17570
549.909	0.18444
537.552	0.18737
525.194	0.18561
512.837	0.18405
500.479	0.18136
488.122	0.17885
475.764	0.17395
463.407	0.16682
451.049	0.15980
438.692	0.15424
426.334	0.14940
413.977	0.14734
401.619	0.14191
399.56	0.14126

File: Silk AgNPr film 45C 8.26.22.dpt
3997.65	0.00915
3985.3	0.01016
3972.94	0.01089
3960.58	0.00972
3948.22	0.00884
3935.87	0.00847
3923.51	0.00826
3911.15	0.00873
3898.79	0.00906
3886.44	0.00930
3874.08	0.00834
3861.72	0.00915
3849.36	0.00919
3837.01	0.00688
3824.65	0.00772
3812.29	0.00676
3799.93	0.00693
3787.58	0.00828
3775.22	0.00814
3762.86	0.00775
3750.5	0.00837
3738.15	0.00961
3725.79	0.01042
3713.43	0.00884
3701.07	0.01025
3688.72	0.01181
3676.36	0.01496
3664	0.02302
3651.64	0.03261
3639.29	0.04236
3626.93	0.05587
3614.57	0.06983
3602.21	0.08313
3589.86	0.09984
3577.5	0.11521
3565.14	0.13529
3552.78	0.15242
3540.43	0.17035
3528.07	0.18611
3515.71	0.20230
3503.35	0.21607
3491	0.22835
3478.64	0.23841
3466.28	0.24623
3453.92	0.25487
3441.57	0.26300
3429.21	0.27371
3416.85	0.28733
3404.49	0.30346
3392.14	0.31997
3379.78	0.33823
3367.42	0.35846
3355.06	0.38318
3342.71	0.40892
3330.35	0.43803
3317.99	0.46965
3305.63	0.49922
3293.28	0.52247
3280.92	0.53122
3268.56	0.52854
3256.2	0.50655
3243.85	0.47835
3231.49	0.44874
3219.13	0.41980
3206.77	0.38911
3194.42	0.35540
3182.06	0.32085
3169.7	0.28540
3157.34	0.25378
3144.99	0.22927
3132.63	0.21341
3120.27	0.20693
3107.91	0.20753
3095.56	0.21640
3083.2	0.22849
3070.84	0.23131
3058.48	0.22231
3046.13	0.20055
3033.77	0.17576
3021.41	0.15408
3009.05	0.14030
2996.7	0.14095
2984.34	0.15256
2971.98	0.14910
2959.62	0.14941
2947.27	0.15704
2934.91	0.17479
2922.55	0.15918
2910.19	0.12482
2897.84	0.10678
2885.48	0.10098
2873.12	0.09826
2860.76	0.08643
2848.41	0.08355
2836.05	0.07300
2823.69	0.06953
2811.33	0.06640
2798.98	0.06098
2786.62	0.05548
2774.26	0.05003
2761.9	0.04476
2749.55	0.04142
2737.19	0.03806
2724.83	0.03564
2712.47	0.03288
2700.12	0.03200
2687.76	0.03058
2675.4	0.02989
2663.04	0.02882
2650.69	0.02775
2638.33	0.02659
2625.97	0.02575
2613.61	0.02475
2601.26	0.02315
2588.9	0.02209
2576.54	0.01954
2564.18	0.01805
2551.83	0.01683
2539.47	0.01687
2527.11	0.01635
2514.75	0.01668
2502.4	0.01505
2490.04	0.01563
2477.68	0.01449
2465.32	0.01410
2452.97	0.01309
2440.61	0.01396
2428.25	0.01351
2415.89	0.01225
2403.54	0.01183
2391.18	0.01268
2378.82	0.01367
2366.46	0.01667
2354.11	0.01484
2341.75	0.01327
2329.39	0.01955
2317.03	0.01012
2304.68	0.01290
2292.32	0.01390
2279.96	0.01312
2267.6	0.01399
2255.25	0.01093
2242.89	0.01256
2230.53	0.01208
2218.17	0.01134
2205.82	0.01319
2193.46	0.01171
2181.1	0.01200
2168.74	0.01135
2156.39	0.01061
2144.03	0.01018
2131.67	0.01218
2119.31	0.01351
2106.96	0.01523
2094.6	0.01351
2082.24	0.01360
2069.88	0.01194
2057.53	0.01035
2045.17	0.01046
2032.81	0.00719
2020.45	0.00915
2008.1	0.00865
1995.74	0.00974
1983.38	0.00919
1971.02	0.00667
1958.67	0.00746
1946.31	0.00794
1933.95	0.00899
1921.59	0.00795
1909.24	0.00907
1896.88	0.00929
1884.52	0.00973
1872.16	0.00952
1859.81	0.00995
1847.45	0.00942
1835.09	0.01081
1822.73	0.01172
1810.38	0.01255
1798.02	0.01342
1785.66	0.01504
1773.3	0.01665
1760.95	0.01863
1748.59	0.02101
1736.23	0.02487
1723.87	0.03173
1711.52	0.05460
1699.16	0.12653
1686.8	0.22617
1674.44	0.34848
1662.09	0.49475
1649.73	0.64893
1637.37	0.72129
1625.01	0.63450
1612.66	0.43623
1600.3	0.28341
1587.94	0.23952
1575.58	0.27517
1563.23	0.36683
1550.87	0.49795
1538.51	0.60827
1526.15	0.64360
1513.8	0.67781
1501.44	0.54045
1489.08	0.35828
1476.72	0.26190
1464.37	0.25367
1452.01	0.28999
1439.65	0.24251
1427.29	0.21279
1414.94	0.25395
1402.58	0.24552
1390.22	0.23938
1377.86	0.24767
1365.5	0.20557
1353.15	0.17563
1340.79	0.20231
1328.43	0.20728
1316.07	0.18168
1303.72	0.18968
1291.36	0.20325
1279	0.21713
1266.64	0.24878
1254.29	0.28594
1241.93	0.33075
1229.57	0.33462
1217.21	0.25909
1204.86	0.18474
1192.5	0.14643
1180.14	0.14828
1167.78	0.16610
1155.43	0.15237
1143.07	0.12978
1130.71	0.12063
1118.35	0.11973
1106	0.12012
1093.64	0.11252
1081.28	0.13256
1068.92	0.14802
1056.57	0.15188
1044.21	0.13202
1031.85	0.11680
1019.49	0.12307
1007.14	0.11471
994.78	0.07930
982.422	0.06618
970.065	0.06536
957.707	0.07155
945.35	0.07639
932.992	0.07044
920.635	0.06329
908.277	0.05789
895.92	0.05550
883.562	0.05659
871.205	0.05982
858.847	0.06956
846.49	0.07578
834.132	0.08352
821.774	0.08542
809.417	0.09001
797.059	0.09448
784.702	0.10010
772.344	0.10759
759.987	0.11565
747.629	0.12683
735.272	0.13685
722.914	0.14566
710.557	0.15512
698.199	0.16576
685.842	0.17462
673.484	0.18249
661.127	0.18814
648.769	0.19028
636.412	0.18996
624.054	0.18942
611.697	0.18890
599.339	0.18994
586.982	0.19293
574.624	0.19950
562.267	0.20848
549.909	0.21778
537.552	0.21992
525.194	0.21591
512.837	0.21502
500.479	0.21119
488.122	0.20761
475.764	0.19977
463.407	0.19180
451.049	0.18320
438.692	0.17551
426.334	0.16888
413.977	0.16374
401.619	0.15916
399.56	0.15901

File: Silk AgNPr film 45C 9.22.22.dpt
3997.65	-0.00307
3985.3	-0.00293
3972.94	-0.00290
3960.58	-0.00233
3948.22	-0.00254
3935.87	-0.00257
3923.51	-0.00086
3911.15	-0.00229
3898.79	-0.00316
3886.44	-0.00339
3874.08	-0.00347
3861.72	-0.00305
3849.36	-0.00242
3837.01	-0.00054
3824.65	-0.00164
3812.29	-0.00270
3799.93	-0.00071
3787.58	-0.00143
3775.22	-0.00240
3762.86	-0.00212
3750.5	-0.00004
3738.15	-0.00206
3725.79	-0.00096
3713.43	-0.00018
3701.07	-0.00058
3688.72	0.00057
3676.36	0.00386
3664	0.00688
3651.64	0.01188
3639.29	0.01388
3626.93	0.02044
3614.57	0.02558
3602.21	0.03370
3589.86	0.04089
3577.5	0.04809
3565.14	0.05692
3552.78	0.06262
3540.43	0.07195
3528.07	0.07861
3515.71	0.08484
3503.35	0.09040
3491	0.09516
3478.64	0.09968
3466.28	0.10461
3453.92	0.10845
3441.57	0.11123
3429.21	0.11499
3416.85	0.12034
3404.49	0.12648
3392.14	0.13299
3379.78	0.14065
3367.42	0.14715
3355.06	0.15643
3342.71	0.16455
3330.35	0.17679
3317.99	0.18741
3305.63	0.19841
3293.28	0.20707
3280.92	0.21168
3268.56	0.21169
3256.2	0.20479
3243.85	0.19380
3231.49	0.18474
3219.13	0.17525
3206.77	0.16396
3194.42	0.15043
3182.06	0.13824
3169.7	0.12378
3157.34	0.11150
3144.99	0.10149
3132.63	0.09364
3120.27	0.09105
3107.91	0.09272
3095.56	0.09494
3083.2	0.09989
3070.84	0.10127
3058.48	0.09683
3046.13	0.08842
3033.77	0.07814
3021.41	0.06878
3009.05	0.06271
2996.7	0.06272
2984.34	0.06715
2971.98	0.06502
2959.62	0.06195
2947.27	0.06582
2934.91	0.07048
2922.55	0.05279
2910.19	0.03543
2897.84	0.03798
2885.48	0.03889
2873.12	0.03853
2860.76	0.03280
2848.41	0.01425
2836.05	0.02772
2823.69	0.02840
2811.33	0.02695
2798.98	0.02495
2786.62	0.02216
2774.26	0.02018
2761.9	0.01794
2749.55	0.01654
2737.19	0.01436
2724.83	0.01390
2712.47	0.01296
2700.12	0.01174
2687.76	0.01156
2675.4	0.01112
2663.04	0.01066
2650.69	0.01077
2638.33	0.01074
2625.97	0.01055
2613.61	0.00937
2601.26	0.00902
2588.9	0.00820
2576.54	0.00753
2564.18	0.00689
2551.83	0.00583
2539.47	0.00569
2527.11	0.00623
2514.75	0.00610
2502.4	0.00633
2490.04	0.00466
2477.68	0.00595
2465.32	0.00512
2452.97	0.00499
2440.61	0.00464
2428.25	0.00429
2415.89	0.00423
2403.54	0.00367
2391.18	0.00346
2378.82	0.00433
2366.46	0.00464
2354.11	0.00430
2341.75	0.00277
2329.39	0.01229
2317.03	-0.00248
2304.68	0.00224
2292.32	0.00528
2279.96	0.00516
2267.6	0.00586
2255.25	0.00430
2242.89	0.00503
2230.53	0.00554
2218.17	0.00528
2205.82	0.00681
2193.46	0.00649
2181.1	0.00707
2168.74	0.00715
2156.39	0.00072
2144.03	0.00358
2131.67	0.00183
2119.31	0.00534
2106.96	0.00613
2094.6	0.00471
2082.24	0.00515
2069.88	0.00427
2057.53	0.00464
2045.17	0.00290
2032.81	0.00283
2020.45	0.00359
2008.1	0.00407
1995.74	0.00316
1983.38	0.00479
1971.02	0.00288
1958.67	0.00283
1946.31	0.00264
1933.95	0.00299
1921.59	0.00307
1909.24	0.00353
1896.88	0.00330
1884.52	0.00399
1872.16	0.00388
1859.81	0.00397
1847.45	0.00404
1835.09	0.00441
1822.73	0.00439
1810.38	0.00497
1798.02	0.00558
1785.66	0.00599
1773.3	0.00694
1760.95	0.00783
1748.59	0.00941
1736.23	0.01072
1723.87	0.01357
1711.52	0.02433
1699.16	0.05689
1686.8	0.09809
1674.44	0.14515
1662.09	0.19505
1649.73	0.24016
1637.37	0.25616
1625.01	0.23539
1612.66	0.17795
1600.3	0.12263
1587.94	0.10414
1575.58	0.11663
1563.23	0.15209
1550.87	0.19627
1538.51	0.22503
1526.15	0.23786
1513.8	0.24847
1501.44	0.20902
1489.08	0.14913
1476.72	0.11291
1464.37	0.10813
1452.01	0.12317
1439.65	0.10511
1427.29	0.09353
1414.94	0.11049
1402.58	0.10785
1390.22	0.10641
1377.86	0.10884
1365.5	0.09191
1353.15	0.07961
1340.79	0.09109
1328.43	0.09304
1316.07	0.08278
1303.72	0.08571
1291.36	0.09076
1279	0.09676
1266.64	0.10962
1254.29	0.12413
1241.93	0.14178
1229.57	0.14243
1217.21	0.11366
1204.86	0.08410
1192.5	0.06812
1180.14	0.06895
1167.78	0.07678
1155.43	0.07089
1143.07	0.06147
1130.71	0.05706
1118.35	0.05682
1106	0.05771
1093.64	0.05463
1081.28	0.06429
1068.92	0.07130
1056.57	0.07389
1044.21	0.06437
1031.85	0.05729
1019.49	0.06045
1007.14	0.05630
994.78	0.04026
982.422	0.03455
970.065	0.03383
957.707	0.03659
945.35	0.03906
932.992	0.03627
920.635	0.03268
908.277	0.03025
895.92	0.02915
883.562	0.02978
871.205	0.03145
858.847	0.03677
846.49	0.03928
834.132	0.04352
821.774	0.04450
809.417	0.04684
797.059	0.04911
784.702	0.05194
772.344	0.05588
759.987	0.06013
747.629	0.06571
735.272	0.07047
722.914	0.07514
710.557	0.07985
698.199	0.08540
685.842	0.08982
673.484	0.09388
661.127	0.09637
648.769	0.09771
636.412	0.09783
624.054	0.09792
611.697	0.09794
599.339	0.09840
586.982	0.10009
574.624	0.10372
562.267	0.10811
549.909	0.11276
537.552	0.11409
525.194	0.11211
512.837	0.11234
500.479	0.11014
488.122	0.10915
475.764	0.10697
463.407	0.10296
451.049	0.09967
438.692	0.09660
426.334	0.09477
413.977	0.09290
401.619	0.09030
399.56	0.08991