Folder: Data/FTIR/db-LASE IR data/AgNPr-LASE lasered at 65C

Note: FTIR/README
YargerLab FT-IR Data Repo

File: Silk AgNPr film 65C 2 8.26.22.dpt
3997.65	-0.00361
3985.3	-0.00179
3972.94	-0.00242
3960.58	-0.00254
3948.22	-0.00390
3935.87	-0.00346
3923.51	-0.00328
3911.15	-0.00270
3898.79	-0.00281
3886.44	-0.00253
3874.08	-0.00263
3861.72	-0.00300
3849.36	-0.00241
3837.01	-0.00331
3824.65	-0.00294
3812.29	-0.00491
3799.93	-0.00372
3787.58	-0.00225
3775.22	-0.00175
3762.86	-0.00312
3750.5	-0.00163
3738.15	0.00010
3725.79	-0.00052
3713.43	-0.00034
3701.07	-0.00082
3688.72	0.00203
3676.36	0.00418
3664	0.00954
3651.64	0.01666
3639.29	0.02417
3626.93	0.03677
3614.57	0.04697
3602.21	0.05688
3589.86	0.06893
3577.5	0.08065
3565.14	0.09701
3552.78	0.10850
3540.43	0.12238
3528.07	0.13604
3515.71	0.14775
3503.35	0.15781
3491	0.16591
3478.64	0.17482
3466.28	0.18110
3453.92	0.18903
3441.57	0.19543
3429.21	0.20341
3416.85	0.21413
3404.49	0.22631
3392.14	0.24019
3379.78	0.25548
3367.42	0.27127
3355.06	0.29112
3342.71	0.31262
3330.35	0.34012
3317.99	0.37069
3305.63	0.40525
3293.28	0.43942
3280.92	0.45951
3268.56	0.45232
3256.2	0.42177
3243.85	0.38993
3231.49	0.36111
3219.13	0.33471
3206.77	0.30765
3194.42	0.27967
3182.06	0.25086
3169.7	0.22230
3157.34	0.19689
3144.99	0.17785
3132.63	0.16505
3120.27	0.16043
3107.91	0.16302
3095.56	0.16920
3083.2	0.17981
3070.84	0.18113
3058.48	0.17299
3046.13	0.15527
3033.77	0.13484
3021.41	0.11874
3009.05	0.10784
2996.7	0.10968
2984.34	0.11959
2971.98	0.11757
2959.62	0.11058
2947.27	0.11677
2934.91	0.12745
2922.55	0.09167
2910.19	0.06826
2897.84	0.07041
2885.48	0.07008
2873.12	0.07063
2860.76	0.05839
2848.41	0.02771
2836.05	0.04892
2823.69	0.04892
2811.33	0.04717
2798.98	0.04417
2786.62	0.03993
2774.26	0.03576
2761.9	0.03213
2749.55	0.02889
2737.19	0.02598
2724.83	0.02448
2712.47	0.02189
2700.12	0.02087
2687.76	0.02001
2675.4	0.01919
2663.04	0.01877
2650.69	0.01769
2638.33	0.01743
2625.97	0.01684
2613.61	0.01593
2601.26	0.01428
2588.9	0.01379
2576.54	0.01207
2564.18	0.01102
2551.83	0.00983
2539.47	0.00873
2527.11	0.00895
2514.75	0.00945
2502.4	0.00823
2490.04	0.00813
2477.68	0.00757
2465.32	0.00738
2452.97	0.00716
2440.61	0.00699
2428.25	0.00694
2415.89	0.00574
2403.54	0.00577
2391.18	0.00626
2378.82	0.00541
2366.46	0.00340
2354.11	0.00590
2341.75	0.00406
2329.39	0.00533
2317.03	0.00672
2304.68	0.00791
2292.32	0.00715
2279.96	0.00694
2267.6	0.00792
2255.25	0.00566
2242.89	0.00643
2230.53	0.00603
2218.17	0.00584
2205.82	0.00844
2193.46	0.00607
2181.1	0.00735
2168.74	0.00752
2156.39	0.00677
2144.03	0.00612
2131.67	0.00632
2119.31	0.00836
2106.96	0.00905
2094.6	0.00845
2082.24	0.00801
2069.88	0.00725
2057.53	0.00638
2045.17	0.00648
2032.81	0.00513
2020.45	0.00580
2008.1	0.00498
1995.74	0.00638
1983.38	0.00710
1971.02	0.00328
1958.67	0.00485
1946.31	0.00444
1933.95	0.00478
1921.59	0.00413
1909.24	0.00542
1896.88	0.00577
1884.52	0.00630
1872.16	0.00653
1859.81	0.00608
1847.45	0.00647
1835.09	0.00732
1822.73	0.00821
1810.38	0.00874
1798.02	0.00992
1785.66	0.01134
1773.3	0.01274
1760.95	0.01481
1748.59	0.01715
1736.23	0.02030
1723.87	0.02674
1711.52	0.04883
1699.16	0.12366
1686.8	0.19893
1674.44	0.29774
1662.09	0.41330
1649.73	0.52621
1637.37	0.57232
1625.01	0.56188
1612.66	0.43625
1600.3	0.26827
1587.94	0.21058
1575.58	0.23070
1563.23	0.30952
1550.87	0.41555
1538.51	0.50148
1526.15	0.55148
1513.8	0.59143
1501.44	0.48872
1489.08	0.33393
1476.72	0.23884
1464.37	0.22346
1452.01	0.26217
1439.65	0.23635
1427.29	0.19862
1414.94	0.22624
1402.58	0.22285
1390.22	0.21562
1377.86	0.21839
1365.5	0.18765
1353.15	0.15974
1340.79	0.17882
1328.43	0.18195
1316.07	0.16079
1303.72	0.16579
1291.36	0.17472
1279	0.18788
1266.64	0.21917
1254.29	0.24714
1241.93	0.28410
1229.57	0.29538
1217.21	0.23747
1204.86	0.16985
1192.5	0.13219
1180.14	0.13120
1167.78	0.15044
1155.43	0.13893
1143.07	0.11589
1130.71	0.10512
1118.35	0.10267
1106	0.10344
1093.64	0.09836
1081.28	0.11822
1068.92	0.13496
1056.57	0.13698
1044.21	0.11951
1031.85	0.10437
1019.49	0.10675
1007.14	0.10210
994.78	0.07771
982.422	0.06481
970.065	0.06396
957.707	0.06544
945.35	0.06765
932.992	0.06311
920.635	0.05680
908.277	0.05122
895.92	0.04920
883.562	0.04971
871.205	0.05190
858.847	0.06028
846.49	0.06569
834.132	0.07194
821.774	0.07347
809.417	0.07711
797.059	0.08041
784.702	0.08634
772.344	0.09407
759.987	0.10197
747.629	0.11243
735.272	0.12305
722.914	0.13309
710.557	0.14354
698.199	0.15435
685.842	0.16215
673.484	0.16818
661.127	0.17301
648.769	0.17572
636.412	0.17619
624.054	0.17592
611.697	0.17616
599.339	0.17527
586.982	0.17575
574.624	0.18073
562.267	0.18867
549.909	0.20062
537.552	0.20105
525.194	0.19619
512.837	0.19437
500.479	0.19010
488.122	0.18710
475.764	0.17871
463.407	0.17185
451.049	0.16490
438.692	0.15919
426.334	0.15535
413.977	0.15152
401.619	0.14622
399.56	0.14501

File: Silk AgNPr film 65C 2 9.22.22.dpt
3997.65	0.00857
3985.3	0.00788
3972.94	0.00813
3960.58	0.00704
3948.22	0.00804
3935.87	0.00822
3923.51	0.00731
3911.15	0.00697
3898.79	0.00808
3886.44	0.00903
3874.08	0.00770
3861.72	0.00783
3849.36	0.00600
3837.01	0.00501
3824.65	0.00759
3812.29	0.00626
3799.93	0.00636
3787.58	0.00732
3775.22	0.00800
3762.86	0.00697
3750.5	0.00749
3738.15	0.00857
3725.79	0.00849
3713.43	0.00770
3701.07	0.00786
3688.72	0.00772
3676.36	0.00875
3664	0.01065
3651.64	0.01448
3639.29	0.01555
3626.93	0.01801
3614.57	0.02463
3602.21	0.02631
3589.86	0.03146
3577.5	0.03586
3565.14	0.04316
3552.78	0.04469
3540.43	0.04982
3528.07	0.05460
3515.71	0.05836
3503.35	0.06273
3491	0.06525
3478.64	0.06868
3466.28	0.07054
3453.92	0.07203
3441.57	0.07390
3429.21	0.07705
3416.85	0.08087
3404.49	0.08499
3392.14	0.08956
3379.78	0.09252
3367.42	0.09834
3355.06	0.10443
3342.71	0.10958
3330.35	0.11728
3317.99	0.12474
3305.63	0.13186
3293.28	0.13691
3280.92	0.13869
3268.56	0.13860
3256.2	0.13548
3243.85	0.12785
3231.49	0.12270
3219.13	0.11485
3206.77	0.10806
3194.42	0.10067
3182.06	0.09162
3169.7	0.08349
3157.34	0.07511
3144.99	0.06853
3132.63	0.06482
3120.27	0.06287
3107.91	0.06339
3095.56	0.06510
3083.2	0.06803
3070.84	0.06923
3058.48	0.06705
3046.13	0.06164
3033.77	0.05466
3021.41	0.04832
3009.05	0.04476
2996.7	0.04508
2984.34	0.04754
2971.98	0.04643
2959.62	0.04620
2947.27	0.04841
2934.91	0.05246
2922.55	0.04775
2910.19	0.03941
2897.84	0.03520
2885.48	0.03354
2873.12	0.03216
2860.76	0.02840
2848.41	0.02778
2836.05	0.02551
2823.69	0.02499
2811.33	0.02390
2798.98	0.02220
2786.62	0.02068
2774.26	0.01879
2761.9	0.01730
2749.55	0.01590
2737.19	0.01535
2724.83	0.01471
2712.47	0.01392
2700.12	0.01328
2687.76	0.01291
2675.4	0.01273
2663.04	0.01287
2650.69	0.01215
2638.33	0.01179
2625.97	0.01173
2613.61	0.01083
2601.26	0.01002
2588.9	0.00984
2576.54	0.00912
2564.18	0.00845
2551.83	0.00808
2539.47	0.00823
2527.11	0.00767
2514.75	0.00759
2502.4	0.00762
2490.04	0.00685
2477.68	0.00721
2465.32	0.00720
2452.97	0.00717
2440.61	0.00694
2428.25	0.00687
2415.89	0.00655
2403.54	0.00689
2391.18	0.00641
2378.82	0.00684
2366.46	0.00653
2354.11	0.00737
2341.75	0.01066
2329.39	0.01754
2317.03	-0.00360
2304.68	0.00356
2292.32	0.00744
2279.96	0.00786
2267.6	0.00568
2255.25	0.00598
2242.89	0.00527
2230.53	0.00584
2218.17	0.00554
2205.82	0.00496
2193.46	0.00804
2181.1	0.00546
2168.74	0.00657
2156.39	0.00162
2144.03	0.00264
2131.67	0.00461
2119.31	0.00485
2106.96	0.00511
2094.6	0.00494
2082.24	0.00536
2069.88	0.00513
2057.53	0.00593
2045.17	0.00521
2032.81	0.00378
2020.45	0.00222
2008.1	0.00250
1995.74	0.00409
1983.38	0.00745
1971.02	0.00463
1958.67	0.00279
1946.31	0.00439
1933.95	0.00347
1921.59	0.00366
1909.24	0.00286
1896.88	0.00388
1884.52	0.00421
1872.16	0.00374
1859.81	0.00406
1847.45	0.00387
1835.09	0.00460
1822.73	0.00427
1810.38	0.00441
1798.02	0.00492
1785.66	0.00581
1773.3	0.00584
1760.95	0.00655
1748.59	0.00757
1736.23	0.00842
1723.87	0.01080
1711.52	0.01741
1699.16	0.04018
1686.8	0.06918
1674.44	0.10217
1662.09	0.13665
1649.73	0.16553
1637.37	0.17695
1625.01	0.16289
1612.66	0.12308
1600.3	0.08533
1587.94	0.07314
1575.58	0.08215
1563.23	0.10614
1550.87	0.13564
1538.51	0.15640
1526.15	0.16470
1513.8	0.17223
1501.44	0.14874
1489.08	0.10844
1476.72	0.08081
1464.37	0.07752
1452.01	0.08753
1439.65	0.07560
1427.29	0.06650
1414.94	0.07783
1402.58	0.07612
1390.22	0.07495
1377.86	0.07713
1365.5	0.06581
1353.15	0.05691
1340.79	0.06460
1328.43	0.06608
1316.07	0.05875
1303.72	0.06102
1291.36	0.06501
1279	0.06917
1266.64	0.07797
1254.29	0.08824
1241.93	0.10059
1229.57	0.10272
1217.21	0.08361
1204.86	0.06226
1192.5	0.05015
1180.14	0.05056
1167.78	0.05622
1155.43	0.05229
1143.07	0.04529
1130.71	0.04236
1118.35	0.04203
1106	0.04244
1093.64	0.04021
1081.28	0.04678
1068.92	0.05208
1056.57	0.05331
1044.21	0.04717
1031.85	0.04249
1019.49	0.04455
1007.14	0.04209
994.78	0.03006
982.422	0.02558
970.065	0.02509
957.707	0.02721
945.35	0.02895
932.992	0.02718
920.635	0.02457
908.277	0.02271
895.92	0.02194
883.562	0.02211
871.205	0.02355
858.847	0.02727
846.49	0.02971
834.132	0.03238
821.774	0.03345
809.417	0.03512
797.059	0.03738
784.702	0.03902
772.344	0.04206
759.987	0.04565
747.629	0.04937
735.272	0.05352
722.914	0.05731
710.557	0.06083
698.199	0.06502
685.842	0.06874
673.484	0.07175
661.127	0.07418
648.769	0.07500
636.412	0.07607
624.054	0.07597
611.697	0.07669
599.339	0.07736
586.982	0.07925
574.624	0.08194
562.267	0.08599
549.909	0.09018
537.552	0.09144
525.194	0.09141
512.837	0.09184
500.479	0.09189
488.122	0.09065
475.764	0.08874
463.407	0.08642
451.049	0.08466
438.692	0.08186
426.334	0.08051
413.977	0.07929
401.619	0.07866
399.56	0.07850

File: Silk AgNPr film 65C 8.26.22.dpt
3997.65	-0.00749
3985.3	-0.00539
3972.94	-0.00517
3960.58	-0.00608
3948.22	-0.00739
3935.87	-0.00712
3923.51	-0.00643
3911.15	-0.00700
3898.79	-0.00562
3886.44	-0.00660
3874.08	-0.00701
3861.72	-0.00475
3849.36	-0.00876
3837.01	-0.00675
3824.65	-0.00875
3812.29	-0.01040
3799.93	-0.00652
3787.58	-0.00529
3775.22	-0.00775
3762.86	-0.00794
3750.5	-0.00271
3738.15	-0.00460
3725.79	-0.00386
3713.43	-0.00407
3701.07	-0.00067
3688.72	0.00117
3676.36	0.00210
3664	0.00221
3651.64	0.00837
3639.29	0.01540
3626.93	0.02631
3614.57	0.03164
3602.21	0.03882
3589.86	0.04817
3577.5	0.05795
3565.14	0.07016
3552.78	0.07914
3540.43	0.08814
3528.07	0.09784
3515.71	0.10638
3503.35	0.11464
3491	0.12174
3478.64	0.12612
3466.28	0.13218
3453.92	0.13732
3441.57	0.14110
3429.21	0.14749
3416.85	0.15471
3404.49	0.16327
3392.14	0.17313
3379.78	0.18298
3367.42	0.19338
3355.06	0.20704
3342.71	0.22070
3330.35	0.23718
3317.99	0.25371
3305.63	0.27013
3293.28	0.28481
3280.92	0.29123
3268.56	0.28944
3256.2	0.27671
3243.85	0.26138
3231.49	0.24687
3219.13	0.23154
3206.77	0.21414
3194.42	0.19770
3182.06	0.17803
3169.7	0.15817
3157.34	0.14058
3144.99	0.12688
3132.63	0.11859
3120.27	0.11355
3107.91	0.11546
3095.56	0.12007
3083.2	0.12692
3070.84	0.12844
3058.48	0.12376
3046.13	0.11138
3033.77	0.09688
3021.41	0.08510
3009.05	0.07710
2996.7	0.07723
2984.34	0.08432
2971.98	0.08060
2959.62	0.07565
2947.27	0.08127
2934.91	0.08794
2922.55	0.05868
2910.19	0.03976
2897.84	0.04556
2885.48	0.04612
2873.12	0.04556
2860.76	0.03749
2848.41	0.01122
2836.05	0.03246
2823.69	0.03342
2811.33	0.03208
2798.98	0.02925
2786.62	0.02657
2774.26	0.02348
2761.9	0.02079
2749.55	0.01826
2737.19	0.01628
2724.83	0.01540
2712.47	0.01351
2700.12	0.01319
2687.76	0.01230
2675.4	0.01196
2663.04	0.01161
2650.69	0.01188
2638.33	0.01104
2625.97	0.01080
2613.61	0.01036
2601.26	0.00865
2588.9	0.00856
2576.54	0.00724
2564.18	0.00635
2551.83	0.00578
2539.47	0.00563
2527.11	0.00552
2514.75	0.00497
2502.4	0.00471
2490.04	0.00487
2477.68	0.00390
2465.32	0.00432
2452.97	0.00418
2440.61	0.00431
2428.25	0.00431
2415.89	0.00291
2403.54	0.00276
2391.18	0.00303
2378.82	0.00577
2366.46	0.01677
2354.11	0.01426
2341.75	0.01168
2329.39	0.01662
2317.03	0.00648
2304.68	0.00512
2292.32	0.00550
2279.96	0.00542
2267.6	0.00579
2255.25	0.00290
2242.89	0.00360
2230.53	0.00452
2218.17	0.00363
2205.82	0.00560
2193.46	0.00437
2181.1	0.00472
2168.74	0.00622
2156.39	0.00340
2144.03	0.00343
2131.67	0.00357
2119.31	0.00502
2106.96	0.00594
2094.6	0.00549
2082.24	0.00529
2069.88	0.00518
2057.53	0.00413
2045.17	0.00393
2032.81	0.00434
2020.45	0.00398
2008.1	0.00434
1995.74	0.00304
1983.38	0.00392
1971.02	0.00266
1958.67	0.00228
1946.31	0.00178
1933.95	0.00280
1921.59	0.00179
1909.24	0.00344
1896.88	0.00297
1884.52	0.00313
1872.16	0.00294
1859.81	0.00387
1847.45	0.00313
1835.09	0.00403
1822.73	0.00456
1810.38	0.00576
1798.02	0.00566
1785.66	0.00698
1773.3	0.00863
1760.95	0.00966
1748.59	0.01121
1736.23	0.01231
1723.87	0.01726
1711.52	0.03145
1699.16	0.07799
1686.8	0.13416
1674.44	0.20074
1662.09	0.27391
1649.73	0.33716
1637.37	0.36583
1625.01	0.33472
1612.66	0.24671
1600.3	0.16396
1587.94	0.13756
1575.58	0.15545
1563.23	0.20318
1550.87	0.26992
1538.51	0.31376
1526.15	0.33518
1513.8	0.35189
1501.44	0.29264
1489.08	0.20679
1476.72	0.14927
1464.37	0.14339
1452.01	0.16466
1439.65	0.14228
1427.29	0.12424
1414.94	0.14644
1402.58	0.14330
1390.22	0.14063
1377.86	0.14439
1365.5	0.12159
1353.15	0.10473
1340.79	0.11992
1328.43	0.12283
1316.07	0.10827
1303.72	0.11267
1291.36	0.11995
1279	0.12821
1266.64	0.14598
1254.29	0.16630
1241.93	0.19113
1229.57	0.19368
1217.21	0.15368
1204.86	0.11149
1192.5	0.08877
1180.14	0.08979
1167.78	0.10082
1155.43	0.09277
1143.07	0.07925
1130.71	0.07343
1118.35	0.07251
1106	0.07317
1093.64	0.06950
1081.28	0.08205
1068.92	0.09222
1056.57	0.09536
1044.21	0.08279
1031.85	0.07302
1019.49	0.07632
1007.14	0.07171
994.78	0.05132
982.422	0.04348
970.065	0.04252
957.707	0.04594
945.35	0.04897
932.992	0.04536
920.635	0.04079
908.277	0.03739
895.92	0.03592
883.562	0.03654
871.205	0.03822
858.847	0.04455
846.49	0.04849
834.132	0.05321
821.774	0.05423
809.417	0.05690
797.059	0.05968
784.702	0.06375
772.344	0.06875
759.987	0.07412
747.629	0.08122
735.272	0.08793
722.914	0.09368
710.557	0.10057
698.199	0.10777
685.842	0.11355
673.484	0.11845
661.127	0.12216
648.769	0.12408
636.412	0.12406
624.054	0.12374
611.697	0.12429
599.339	0.12495
586.982	0.12616
574.624	0.13131
562.267	0.13669
549.909	0.14324
537.552	0.14495
525.194	0.14359
512.837	0.14311
500.479	0.14148
488.122	0.13894
475.764	0.13421
463.407	0.12918
451.049	0.12488
438.692	0.12084
426.334	0.11905
413.977	0.11609
401.619	0.11457
399.56	0.11444

File: Silk AgNPr film 65C 9.22.22.dpt
3997.65	0.00960
3985.3	0.00864
3972.94	0.00966
3960.58	0.00791
3948.22	0.00890
3935.87	0.00775
3923.51	0.00957
3911.15	0.00839
3898.79	0.00897
3886.44	0.00906
3874.08	0.00870
3861.72	0.00839
3849.36	0.00863
3837.01	0.00644
3824.65	0.00786
3812.29	0.00737
3799.93	0.00685
3787.58	0.00784
3775.22	0.00851
3762.86	0.00726
3750.5	0.00837
3738.15	0.00885
3725.79	0.00885
3713.43	0.00869
3701.07	0.00926
3688.72	0.01199
3676.36	0.01436
3664	0.01503
3651.64	0.01994
3639.29	0.02486
3626.93	0.03141
3614.57	0.03924
3602.21	0.04437
3589.86	0.05242
3577.5	0.06147
3565.14	0.07210
3552.78	0.07902
3540.43	0.08793
3528.07	0.09644
3515.71	0.10339
3503.35	0.11028
3491	0.11669
3478.64	0.12201
3466.28	0.12555
3453.92	0.13024
3441.57	0.13472
3429.21	0.14161
3416.85	0.15023
3404.49	0.16002
3392.14	0.17101
3379.78	0.18073
3367.42	0.19387
3355.06	0.20895
3342.71	0.22416
3330.35	0.24282
3317.99	0.26053
3305.63	0.27832
3293.28	0.29322
3280.92	0.29896
3268.56	0.29307
3256.2	0.27945
3243.85	0.26019
3231.49	0.24360
3219.13	0.22580
3206.77	0.20938
3194.42	0.19066
3182.06	0.17114
3169.7	0.15287
3157.34	0.13649
3144.99	0.12340
3132.63	0.11558
3120.27	0.11291
3107.91	0.11457
3095.56	0.11950
3083.2	0.12606
3070.84	0.12813
3058.48	0.12317
3046.13	0.11173
3033.77	0.09807
3021.41	0.08599
3009.05	0.07988
2996.7	0.08144
2984.34	0.08786
2971.98	0.08674
2959.62	0.08699
2947.27	0.09083
2934.91	0.10047
2922.55	0.08901
2910.19	0.07137
2897.84	0.06241
2885.48	0.06019
2873.12	0.05834
2860.76	0.05050
2848.41	0.04784
2836.05	0.04353
2823.69	0.04248
2811.33	0.04047
2798.98	0.03772
2786.62	0.03489
2774.26	0.03124
2761.9	0.02854
2749.55	0.02598
2737.19	0.02436
2724.83	0.02302
2712.47	0.02161
2700.12	0.02076
2687.76	0.02003
2675.4	0.01904
2663.04	0.01887
2650.69	0.01808
2638.33	0.01818
2625.97	0.01711
2613.61	0.01657
2601.26	0.01554
2588.9	0.01435
2576.54	0.01316
2564.18	0.01268
2551.83	0.01129
2539.47	0.01118
2527.11	0.01025
2514.75	0.00997
2502.4	0.01057
2490.04	0.01108
2477.68	0.00964
2465.32	0.00974
2452.97	0.00953
2440.61	0.00959
2428.25	0.00887
2415.89	0.00864
2403.54	0.00814
2391.18	0.00854
2378.82	0.00802
2366.46	0.00685
2354.11	0.00803
2341.75	0.00775
2329.39	0.00912
2317.03	0.00852
2304.68	0.00894
2292.32	0.00824
2279.96	0.00879
2267.6	0.00703
2255.25	0.00627
2242.89	0.00763
2230.53	0.00691
2218.17	0.00722
2205.82	0.00727
2193.46	0.00831
2181.1	0.00692
2168.74	0.00725
2156.39	0.00284
2144.03	0.00612
2131.67	0.00712
2119.31	0.00787
2106.96	0.00843
2094.6	0.00686
2082.24	0.00847
2069.88	0.00825
2057.53	0.00760
2045.17	0.00697
2032.81	0.00425
2020.45	0.00306
2008.1	0.00547
1995.74	0.00536
1983.38	0.00843
1971.02	0.00502
1958.67	0.00417
1946.31	0.00603
1933.95	0.00514
1921.59	0.00655
1909.24	0.00592
1896.88	0.00659
1884.52	0.00644
1872.16	0.00632
1859.81	0.00640
1847.45	0.00687
1835.09	0.00737
1822.73	0.00779
1810.38	0.00851
1798.02	0.00913
1785.66	0.01006
1773.3	0.01172
1760.95	0.01284
1748.59	0.01514
1736.23	0.01741
1723.87	0.02222
1711.52	0.03976
1699.16	0.09575
1686.8	0.16518
1674.44	0.25066
1662.09	0.34930
1649.73	0.44123
1637.37	0.47299
1625.01	0.41953
1612.66	0.29595
1600.3	0.19161
1587.94	0.16069
1575.58	0.18265
1563.23	0.24465
1550.87	0.33104
1538.51	0.39960
1526.15	0.42816
1513.8	0.45881
1501.44	0.39241
1489.08	0.27383
1476.72	0.19359
1464.37	0.18076
1452.01	0.20703
1439.65	0.17855
1427.29	0.15359
1414.94	0.17983
1402.58	0.17561
1390.22	0.17163
1377.86	0.17772
1365.5	0.15015
1353.15	0.12806
1340.79	0.14658
1328.43	0.15191
1316.07	0.13303
1303.72	0.13758
1291.36	0.14659
1279	0.15722
1266.64	0.17972
1254.29	0.20446
1241.93	0.23745
1229.57	0.24725
1217.21	0.20276
1204.86	0.14667
1192.5	0.11408
1180.14	0.11248
1167.78	0.12663
1155.43	0.11783
1143.07	0.10043
1130.71	0.09171
1118.35	0.08998
1106	0.09053
1093.64	0.08520
1081.28	0.09994
1068.92	0.11311
1056.57	0.11711
1044.21	0.10224
1031.85	0.09057
1019.49	0.09437
1007.14	0.09055
994.78	0.06317
982.422	0.05201
970.065	0.05132
957.707	0.05546
945.35	0.05834
932.992	0.05396
920.635	0.04831
908.277	0.04363
895.92	0.04188
883.562	0.04187
871.205	0.04388
858.847	0.05148
846.49	0.05667
834.132	0.06200
821.774	0.06333
809.417	0.06654
797.059	0.07023
784.702	0.07443
772.344	0.08024
759.987	0.08709
747.629	0.09559
735.272	0.10394
722.914	0.11225
710.557	0.12029
698.199	0.12943
685.842	0.13690
673.484	0.14343
661.127	0.14854
648.769	0.15097
636.412	0.15122
624.054	0.15121
611.697	0.15116
599.339	0.15222
586.982	0.15550
574.624	0.16105
562.267	0.16877
549.909	0.17745
537.552	0.17922
525.194	0.17761
512.837	0.17582
500.479	0.17352
488.122	0.16982
475.764	0.16414
463.407	0.15725
451.049	0.15075
438.692	0.14451
426.334	0.13993
413.977	0.13768
401.619	0.13272
399.56	0.13112