Folder: Data/FTIR/db-LASE IR data/AgNPr-LASE lasered at 55C

Note: FTIR/README
YargerLab FT-IR Data Repo

File: Silk AgNPr film 55C 2 8.26.22.dpt
3997.65	0.00266
3985.3	0.00278
3972.94	0.00277
3960.58	0.00354
3948.22	0.00152
3935.87	0.00226
3923.51	0.00285
3911.15	0.00224
3898.79	0.00295
3886.44	0.00183
3874.08	0.00281
3861.72	0.00412
3849.36	0.00369
3837.01	0.00046
3824.65	0.00160
3812.29	0.00066
3799.93	-0.00017
3787.58	0.00261
3775.22	0.00245
3762.86	0.00242
3750.5	0.00303
3738.15	0.00573
3725.79	0.00421
3713.43	0.00378
3701.07	0.00539
3688.72	0.00811
3676.36	0.01294
3664	0.02028
3651.64	0.03021
3639.29	0.04325
3626.93	0.05886
3614.57	0.07437
3602.21	0.08921
3589.86	0.10804
3577.5	0.12732
3565.14	0.14936
3552.78	0.16927
3540.43	0.18964
3528.07	0.20861
3515.71	0.22689
3503.35	0.24378
3491	0.25667
3478.64	0.26851
3466.28	0.27712
3453.92	0.28845
3441.57	0.29740
3429.21	0.30933
3416.85	0.32604
3404.49	0.34347
3392.14	0.36308
3379.78	0.38441
3367.42	0.40844
3355.06	0.43547
3342.71	0.46572
3330.35	0.50021
3317.99	0.53617
3305.63	0.57148
3293.28	0.59890
3280.92	0.61175
3268.56	0.60654
3256.2	0.57996
3243.85	0.54624
3231.49	0.51270
3219.13	0.47944
3206.77	0.44296
3194.42	0.40354
3182.06	0.36204
3169.7	0.32188
3157.34	0.28584
3144.99	0.25788
3132.63	0.23975
3120.27	0.23202
3107.91	0.23386
3095.56	0.24290
3083.2	0.25656
3070.84	0.25961
3058.48	0.24918
3046.13	0.22478
3033.77	0.19591
3021.41	0.17118
3009.05	0.15518
2996.7	0.15598
2984.34	0.16848
2971.98	0.16457
2959.62	0.16083
2947.27	0.17002
2934.91	0.18545
2922.55	0.15181
2910.19	0.11761
2897.84	0.10733
2885.48	0.10408
2873.12	0.10146
2860.76	0.08645
2848.41	0.06661
2836.05	0.07401
2823.69	0.07227
2811.33	0.06887
2798.98	0.06304
2786.62	0.05711
2774.26	0.05083
2761.9	0.04534
2749.55	0.04190
2737.19	0.03782
2724.83	0.03584
2712.47	0.03246
2700.12	0.03107
2687.76	0.03027
2675.4	0.02854
2663.04	0.02747
2650.69	0.02670
2638.33	0.02576
2625.97	0.02446
2613.61	0.02340
2601.26	0.02147
2588.9	0.02070
2576.54	0.01827
2564.18	0.01664
2551.83	0.01613
2539.47	0.01484
2527.11	0.01485
2514.75	0.01481
2502.4	0.01328
2490.04	0.01390
2477.68	0.01252
2465.32	0.01268
2452.97	0.01189
2440.61	0.01197
2428.25	0.01169
2415.89	0.01052
2403.54	0.01029
2391.18	0.01021
2378.82	0.01108
2366.46	0.01204
2354.11	0.01185
2341.75	0.01030
2329.39	0.01422
2317.03	0.01094
2304.68	0.01184
2292.32	0.01202
2279.96	0.01182
2267.6	0.01133
2255.25	0.00969
2242.89	0.01084
2230.53	0.01041
2218.17	0.00999
2205.82	0.01095
2193.46	0.01081
2181.1	0.01189
2168.74	0.00998
2156.39	0.01008
2144.03	0.01113
2131.67	0.01093
2119.31	0.01285
2106.96	0.01297
2094.6	0.01298
2082.24	0.01254
2069.88	0.01162
2057.53	0.01058
2045.17	0.00930
2032.81	0.00840
2020.45	0.00843
2008.1	0.00907
1995.74	0.00774
1983.38	0.00835
1971.02	0.00578
1958.67	0.00677
1946.31	0.00741
1933.95	0.00776
1921.59	0.00741
1909.24	0.00877
1896.88	0.00889
1884.52	0.00912
1872.16	0.00871
1859.81	0.00957
1847.45	0.00948
1835.09	0.01042
1822.73	0.01161
1810.38	0.01237
1798.02	0.01406
1785.66	0.01553
1773.3	0.01690
1760.95	0.01918
1748.59	0.02220
1736.23	0.02606
1723.87	0.03381
1711.52	0.05889
1699.16	0.13686
1686.8	0.24510
1674.44	0.37801
1662.09	0.53945
1649.73	0.71442
1637.37	0.79871
1625.01	0.70480
1612.66	0.48361
1600.3	0.31356
1587.94	0.26386
1575.58	0.30106
1563.23	0.40288
1550.87	0.54703
1538.51	0.66552
1526.15	0.70941
1513.8	0.74782
1501.44	0.59105
1489.08	0.38933
1476.72	0.28091
1464.37	0.27222
1452.01	0.31312
1439.65	0.26223
1427.29	0.22952
1414.94	0.27488
1402.58	0.26670
1390.22	0.26109
1377.86	0.26841
1365.5	0.22223
1353.15	0.18968
1340.79	0.21865
1328.43	0.22401
1316.07	0.19659
1303.72	0.20554
1291.36	0.22004
1279	0.23485
1266.64	0.26842
1254.29	0.30867
1241.93	0.35695
1229.57	0.36014
1217.21	0.27692
1204.86	0.19654
1192.5	0.15540
1180.14	0.15751
1167.78	0.17694
1155.43	0.16180
1143.07	0.13778
1130.71	0.12747
1118.35	0.12653
1106	0.12633
1093.64	0.11813
1081.28	0.14016
1068.92	0.15660
1056.57	0.16047
1044.21	0.13869
1031.85	0.12263
1019.49	0.12925
1007.14	0.12004
994.78	0.08300
982.422	0.06974
970.065	0.06887
957.707	0.07534
945.35	0.08066
932.992	0.07420
920.635	0.06671
908.277	0.06120
895.92	0.05868
883.562	0.05978
871.205	0.06289
858.847	0.07344
846.49	0.07987
834.132	0.08807
821.774	0.08973
809.417	0.09481
797.059	0.09913
784.702	0.10552
772.344	0.11303
759.987	0.12201
747.629	0.13352
735.272	0.14327
722.914	0.15285
710.557	0.16253
698.199	0.17368
685.842	0.18246
673.484	0.19114
661.127	0.19674
648.769	0.19830
636.412	0.19828
624.054	0.19770
611.697	0.19676
599.339	0.19765
586.982	0.20048
574.624	0.20694
562.267	0.21518
549.909	0.22500
537.552	0.22692
525.194	0.22485
512.837	0.22133
500.479	0.21853
488.122	0.21355
475.764	0.20511
463.407	0.19596
451.049	0.18770
438.692	0.17983
426.334	0.17241
413.977	0.16719
401.619	0.16340
399.56	0.16222

File: Silk AgNPr film 55C 2 9.22.22.dpt
3997.65	-0.00268
3985.3	-0.00250
3972.94	-0.00258
3960.58	-0.00170
3948.22	-0.00380
3935.87	-0.00317
3923.51	-0.00239
3911.15	-0.00208
3898.79	-0.00234
3886.44	-0.00228
3874.08	-0.00257
3861.72	-0.00313
3849.36	-0.00334
3837.01	-0.00168
3824.65	-0.00189
3812.29	-0.00246
3799.93	-0.00116
3787.58	-0.00115
3775.22	-0.00132
3762.86	-0.00205
3750.5	-0.00010
3738.15	-0.00111
3725.79	-0.00131
3713.43	-0.00047
3701.07	-0.00175
3688.72	-0.00012
3676.36	0.00205
3664	0.00329
3651.64	0.00665
3639.29	0.00746
3626.93	0.01073
3614.57	0.01342
3602.21	0.01769
3589.86	0.02203
3577.5	0.02640
3565.14	0.03163
3552.78	0.03436
3540.43	0.04013
3528.07	0.04477
3515.71	0.04745
3503.35	0.05138
3491	0.05414
3478.64	0.05641
3466.28	0.05966
3453.92	0.06263
3441.57	0.06422
3429.21	0.06604
3416.85	0.06933
3404.49	0.07244
3392.14	0.07685
3379.78	0.08100
3367.42	0.08557
3355.06	0.09018
3342.71	0.09520
3330.35	0.10175
3317.99	0.10855
3305.63	0.11461
3293.28	0.11941
3280.92	0.12249
3268.56	0.12317
3256.2	0.11978
3243.85	0.11433
3231.49	0.11034
3219.13	0.10514
3206.77	0.09871
3194.42	0.09043
3182.06	0.08403
3169.7	0.07534
3157.34	0.06766
3144.99	0.06179
3132.63	0.05698
3120.27	0.05540
3107.91	0.05580
3095.56	0.05731
3083.2	0.05987
3070.84	0.06134
3058.48	0.05918
3046.13	0.05498
3033.77	0.04814
3021.41	0.04255
3009.05	0.03851
2996.7	0.03916
2984.34	0.04097
2971.98	0.03855
2959.62	0.03278
2947.27	0.03645
2934.91	0.03519
2922.55	0.00330
2910.19	-0.00142
2897.84	0.01352
2885.48	0.01775
2873.12	0.01884
2860.76	0.01350
2848.41	-0.02129
2836.05	0.01367
2823.69	0.01593
2811.33	0.01606
2798.98	0.01474
2786.62	0.01354
2774.26	0.01261
2761.9	0.01097
2749.55	0.01097
2737.19	0.00890
2724.83	0.00899
2712.47	0.00846
2700.12	0.00746
2687.76	0.00770
2675.4	0.00712
2663.04	0.00675
2650.69	0.00725
2638.33	0.00685
2625.97	0.00704
2613.61	0.00581
2601.26	0.00593
2588.9	0.00503
2576.54	0.00411
2564.18	0.00485
2551.83	0.00398
2539.47	0.00396
2527.11	0.00399
2514.75	0.00358
2502.4	0.00382
2490.04	0.00330
2477.68	0.00386
2465.32	0.00421
2452.97	0.00374
2440.61	0.00327
2428.25	0.00344
2415.89	0.00247
2403.54	0.00288
2391.18	0.00307
2378.82	0.00208
2366.46	0.00066
2354.11	0.00345
2341.75	0.00499
2329.39	0.00023
2317.03	0.00610
2304.68	0.00573
2292.32	0.00361
2279.96	0.00383
2267.6	0.00426
2255.25	0.00441
2242.89	0.00274
2230.53	0.00370
2218.17	0.00326
2205.82	0.00418
2193.46	0.00555
2181.1	0.00273
2168.74	0.00125
2156.39	0.00038
2144.03	0.00014
2131.67	0.00055
2119.31	0.00329
2106.96	0.00332
2094.6	0.00323
2082.24	0.00463
2069.88	0.00352
2057.53	0.00334
2045.17	0.00028
2032.81	0.00081
2020.45	0.00140
2008.1	0.00351
1995.74	0.00123
1983.38	0.00305
1971.02	0.00074
1958.67	0.00174
1946.31	0.00258
1933.95	0.00159
1921.59	0.00231
1909.24	0.00280
1896.88	0.00258
1884.52	0.00272
1872.16	0.00313
1859.81	0.00280
1847.45	0.00316
1835.09	0.00334
1822.73	0.00352
1810.38	0.00392
1798.02	0.00435
1785.66	0.00460
1773.3	0.00539
1760.95	0.00591
1748.59	0.00750
1736.23	0.00872
1723.87	0.01019
1711.52	0.01818
1699.16	0.04119
1686.8	0.06992
1674.44	0.10208
1662.09	0.13465
1649.73	0.16275
1637.37	0.17280
1625.01	0.15609
1612.66	0.11590
1600.3	0.07954
1587.94	0.06744
1575.58	0.07345
1563.23	0.10132
1550.87	0.13190
1538.51	0.14894
1526.15	0.16237
1513.8	0.17016
1501.44	0.14432
1489.08	0.10251
1476.72	0.07449
1464.37	0.06973
1452.01	0.08250
1439.65	0.07081
1427.29	0.06247
1414.94	0.07421
1402.58	0.07422
1390.22	0.07306
1377.86	0.07471
1365.5	0.06313
1353.15	0.05447
1340.79	0.06253
1328.43	0.06395
1316.07	0.05718
1303.72	0.05954
1291.36	0.06321
1279	0.06746
1266.64	0.07679
1254.29	0.08718
1241.93	0.10033
1229.57	0.10187
1217.21	0.08159
1204.86	0.06004
1192.5	0.04903
1180.14	0.05030
1167.78	0.05725
1155.43	0.05475
1143.07	0.04964
1130.71	0.04766
1118.35	0.04874
1106	0.05031
1093.64	0.04882
1081.28	0.05535
1068.92	0.06062
1056.57	0.06184
1044.21	0.05392
1031.85	0.04811
1019.49	0.04992
1007.14	0.04740
994.78	0.03573
982.422	0.03069
970.065	0.02935
957.707	0.03079
945.35	0.03241
932.992	0.02987
920.635	0.02689
908.277	0.02497
895.92	0.02428
883.562	0.02496
871.205	0.02600
858.847	0.02994
846.49	0.03184
834.132	0.03417
821.774	0.03481
809.417	0.03643
797.059	0.03837
784.702	0.04074
772.344	0.04360
759.987	0.04712
747.629	0.05185
735.272	0.05560
722.914	0.05912
710.557	0.06379
698.199	0.06808
685.842	0.07166
673.484	0.07557
661.127	0.07842
648.769	0.07995
636.412	0.08103
624.054	0.08137
611.697	0.08184
599.339	0.08326
586.982	0.08527
574.624	0.08919
562.267	0.09391
549.909	0.09952
537.552	0.10147
525.194	0.10073
512.837	0.10050
500.479	0.09980
488.122	0.09912
475.764	0.09707
463.407	0.09421
451.049	0.09239
438.692	0.08915
426.334	0.08834
413.977	0.08698
401.619	0.08570
399.56	0.08559

File: Silk AgNPr film 55C 8.26.22.dpt
3997.65	-0.00451
3985.3	-0.00331
3972.94	-0.00279
3960.58	-0.00416
3948.22	-0.00485
3935.87	-0.00470
3923.51	-0.00254
3911.15	-0.00261
3898.79	-0.00306
3886.44	-0.00348
3874.08	-0.00334
3861.72	-0.00301
3849.36	-0.00255
3837.01	-0.00542
3824.65	-0.00344
3812.29	-0.00388
3799.93	-0.00415
3787.58	-0.00288
3775.22	-0.00233
3762.86	-0.00275
3750.5	-0.00099
3738.15	0.00084
3725.79	-0.00152
3713.43	-0.00231
3701.07	-0.00054
3688.72	-0.00001
3676.36	0.00199
3664	0.00509
3651.64	0.01140
3639.29	0.01543
3626.93	0.02488
3614.57	0.03188
3602.21	0.03897
3589.86	0.04707
3577.5	0.05527
3565.14	0.06582
3552.78	0.07480
3540.43	0.08411
3528.07	0.09289
3515.71	0.10096
3503.35	0.10858
3491	0.11371
3478.64	0.11964
3466.28	0.12454
3453.92	0.12868
3441.57	0.13302
3429.21	0.13737
3416.85	0.14494
3404.49	0.15406
3392.14	0.16207
3379.78	0.17136
3367.42	0.18058
3355.06	0.19314
3342.71	0.20542
3330.35	0.21845
3317.99	0.23375
3305.63	0.24797
3293.28	0.25896
3280.92	0.26225
3268.56	0.26004
3256.2	0.24880
3243.85	0.23493
3231.49	0.22095
3219.13	0.20756
3206.77	0.19271
3194.42	0.17675
3182.06	0.15923
3169.7	0.14171
3157.34	0.12589
3144.99	0.11467
3132.63	0.10715
3120.27	0.10411
3107.91	0.10577
3095.56	0.10852
3083.2	0.11574
3070.84	0.11653
3058.48	0.11153
3046.13	0.09989
3033.77	0.08761
3021.41	0.07757
3009.05	0.07008
2996.7	0.07089
2984.34	0.07702
2971.98	0.07471
2959.62	0.07252
2947.27	0.07767
2934.91	0.08531
2922.55	0.06627
2910.19	0.04849
2897.84	0.04702
2885.48	0.04612
2873.12	0.04514
2860.76	0.03863
2848.41	0.02347
2836.05	0.03246
2823.69	0.03199
2811.33	0.03059
2798.98	0.02763
2786.62	0.02522
2774.26	0.02216
2761.9	0.01925
2749.55	0.01768
2737.19	0.01601
2724.83	0.01511
2712.47	0.01350
2700.12	0.01283
2687.76	0.01222
2675.4	0.01206
2663.04	0.01148
2650.69	0.01120
2638.33	0.01051
2625.97	0.01043
2613.61	0.00965
2601.26	0.00868
2588.9	0.00879
2576.54	0.00702
2564.18	0.00615
2551.83	0.00544
2539.47	0.00547
2527.11	0.00568
2514.75	0.00549
2502.4	0.00404
2490.04	0.00497
2477.68	0.00411
2465.32	0.00376
2452.97	0.00400
2440.61	0.00448
2428.25	0.00407
2415.89	0.00304
2403.54	0.00267
2391.18	0.00311
2378.82	0.00407
2366.46	0.00853
2354.11	0.00849
2341.75	0.00644
2329.39	0.01056
2317.03	0.00343
2304.68	0.00472
2292.32	0.00469
2279.96	0.00528
2267.6	0.00526
2255.25	0.00319
2242.89	0.00414
2230.53	0.00461
2218.17	0.00367
2205.82	0.00401
2193.46	0.00424
2181.1	0.00371
2168.74	0.00430
2156.39	0.00280
2144.03	0.00392
2131.67	0.00379
2119.31	0.00453
2106.96	0.00588
2094.6	0.00529
2082.24	0.00477
2069.88	0.00435
2057.53	0.00352
2045.17	0.00476
2032.81	0.00379
2020.45	0.00268
2008.1	0.00363
1995.74	0.00357
1983.38	0.00338
1971.02	0.00171
1958.67	0.00157
1946.31	0.00294
1933.95	0.00328
1921.59	0.00227
1909.24	0.00293
1896.88	0.00329
1884.52	0.00371
1872.16	0.00317
1859.81	0.00401
1847.45	0.00385
1835.09	0.00490
1822.73	0.00534
1810.38	0.00526
1798.02	0.00640
1785.66	0.00727
1773.3	0.00821
1760.95	0.00961
1748.59	0.01140
1736.23	0.01369
1723.87	0.01781
1711.52	0.03138
1699.16	0.07227
1686.8	0.12750
1674.44	0.19019
1662.09	0.25883
1649.73	0.32110
1637.37	0.34558
1625.01	0.31285
1612.66	0.22954
1600.3	0.15521
1587.94	0.13232
1575.58	0.14934
1563.23	0.19604
1550.87	0.25588
1538.51	0.29820
1526.15	0.31506
1513.8	0.32983
1501.44	0.27771
1489.08	0.19595
1476.72	0.14355
1464.37	0.13817
1452.01	0.15747
1439.65	0.13499
1427.29	0.11896
1414.94	0.14044
1402.58	0.13676
1390.22	0.13393
1377.86	0.13776
1365.5	0.11577
1353.15	0.09964
1340.79	0.11430
1328.43	0.11733
1316.07	0.10369
1303.72	0.10795
1291.36	0.11531
1279	0.12292
1266.64	0.13930
1254.29	0.15833
1241.93	0.18115
1229.57	0.18425
1217.21	0.14791
1204.86	0.10763
1192.5	0.08534
1180.14	0.08617
1167.78	0.09654
1155.43	0.08920
1143.07	0.07651
1130.71	0.07058
1118.35	0.07013
1106	0.07007
1093.64	0.06599
1081.28	0.07784
1068.92	0.08699
1056.57	0.08928
1044.21	0.07811
1031.85	0.06934
1019.49	0.07296
1007.14	0.06840
994.78	0.04803
982.422	0.04049
970.065	0.04006
957.707	0.04381
945.35	0.04664
932.992	0.04315
920.635	0.03894
908.277	0.03576
895.92	0.03473
883.562	0.03539
871.205	0.03732
858.847	0.04367
846.49	0.04760
834.132	0.05238
821.774	0.05338
809.417	0.05643
797.059	0.05982
784.702	0.06331
772.344	0.06801
759.987	0.07373
747.629	0.08057
735.272	0.08682
722.914	0.09305
710.557	0.09898
698.199	0.10602
685.842	0.11180
673.484	0.11684
661.127	0.12048
648.769	0.12245
636.412	0.12270
624.054	0.12215
611.697	0.12262
599.339	0.12453
586.982	0.12650
574.624	0.13134
562.267	0.13662
549.909	0.14357
537.552	0.14492
525.194	0.14339
512.837	0.14382
500.479	0.14155
488.122	0.14003
475.764	0.13557
463.407	0.13129
451.049	0.12558
438.692	0.12211
426.334	0.11898
413.977	0.11761
401.619	0.11483
399.56	0.11456

File: Silk AgNPr film 55C 9.22.22.dpt
3997.65	-0.00211
3985.3	-0.00326
3972.94	-0.00211
3960.58	-0.00217
3948.22	-0.00386
3935.87	-0.00314
3923.51	-0.00259
3911.15	-0.00269
3898.79	-0.00322
3886.44	-0.00366
3874.08	-0.00441
3861.72	-0.00389
3849.36	-0.00249
3837.01	-0.00160
3824.65	-0.00201
3812.29	-0.00294
3799.93	-0.00204
3787.58	-0.00248
3775.22	-0.00146
3762.86	-0.00269
3750.5	-0.00035
3738.15	-0.00240
3725.79	-0.00195
3713.43	-0.00138
3701.07	-0.00155
3688.72	-0.00004
3676.36	0.00390
3664	0.00531
3651.64	0.01032
3639.29	0.01374
3626.93	0.01848
3614.57	0.02375
3602.21	0.03076
3589.86	0.03524
3577.5	0.04238
3565.14	0.05120
3552.78	0.05655
3540.43	0.06416
3528.07	0.07034
3515.71	0.07629
3503.35	0.08101
3491	0.08594
3478.64	0.09012
3466.28	0.09438
3453.92	0.09833
3441.57	0.10096
3429.21	0.10446
3416.85	0.10907
3404.49	0.11451
3392.14	0.11957
3379.78	0.12573
3367.42	0.13299
3355.06	0.14055
3342.71	0.14992
3330.35	0.16254
3317.99	0.17634
3305.63	0.19128
3293.28	0.20762
3280.92	0.21720
3268.56	0.21622
3256.2	0.20409
3243.85	0.18867
3231.49	0.17732
3219.13	0.16632
3206.77	0.15308
3194.42	0.14024
3182.06	0.12788
3169.7	0.11410
3157.34	0.10283
3144.99	0.09366
3132.63	0.08621
3120.27	0.08431
3107.91	0.08527
3095.56	0.08826
3083.2	0.09221
3070.84	0.09387
3058.48	0.08830
3046.13	0.08061
3033.77	0.07080
3021.41	0.06247
3009.05	0.05663
2996.7	0.05811
2984.34	0.06192
2971.98	0.06027
2959.62	0.05497
2947.27	0.05822
2934.91	0.06104
2922.55	0.03095
2910.19	0.01986
2897.84	0.03013
2885.48	0.03343
2873.12	0.03474
2860.76	0.02782
2848.41	-0.00539
2836.05	0.02392
2823.69	0.02563
2811.33	0.02474
2798.98	0.02320
2786.62	0.02109
2774.26	0.01938
2761.9	0.01765
2749.55	0.01645
2737.19	0.01440
2724.83	0.01374
2712.47	0.01248
2700.12	0.01155
2687.76	0.01131
2675.4	0.01096
2663.04	0.01018
2650.69	0.01046
2638.33	0.01039
2625.97	0.01014
2613.61	0.00927
2601.26	0.00833
2588.9	0.00804
2576.54	0.00723
2564.18	0.00666
2551.83	0.00609
2539.47	0.00639
2527.11	0.00582
2514.75	0.00592
2502.4	0.00587
2490.04	0.00509
2477.68	0.00571
2465.32	0.00520
2452.97	0.00419
2440.61	0.00441
2428.25	0.00432
2415.89	0.00479
2403.54	0.00406
2391.18	0.00358
2378.82	0.00453
2366.46	0.00617
2354.11	0.00530
2341.75	0.00581
2329.39	0.00678
2317.03	0.00630
2304.68	0.00532
2292.32	0.00536
2279.96	0.00510
2267.6	0.00595
2255.25	0.00493
2242.89	0.00452
2230.53	0.00417
2218.17	0.00436
2205.82	0.00645
2193.46	0.00718
2181.1	0.00523
2168.74	0.00668
2156.39	0.00181
2144.03	0.00184
2131.67	0.00340
2119.31	0.00597
2106.96	0.00508
2094.6	0.00520
2082.24	0.00540
2069.88	0.00561
2057.53	0.00424
2045.17	0.00297
2032.81	0.00339
2020.45	0.00181
2008.1	0.00520
1995.74	0.00296
1983.38	0.00439
1971.02	0.00218
1958.67	0.00270
1946.31	0.00290
1933.95	0.00303
1921.59	0.00316
1909.24	0.00347
1896.88	0.00331
1884.52	0.00389
1872.16	0.00390
1859.81	0.00407
1847.45	0.00381
1835.09	0.00381
1822.73	0.00478
1810.38	0.00499
1798.02	0.00596
1785.66	0.00631
1773.3	0.00715
1760.95	0.00793
1748.59	0.00994
1736.23	0.01166
1723.87	0.01389
1711.52	0.02443
1699.16	0.06126
1686.8	0.09327
1674.44	0.13456
1662.09	0.17835
1649.73	0.21823
1637.37	0.23298
1625.01	0.23859
1612.66	0.20105
1600.3	0.13056
1587.94	0.10220
1575.58	0.10734
1563.23	0.14259
1550.87	0.18359
1538.51	0.21185
1526.15	0.23255
1513.8	0.24681
1501.44	0.21205
1489.08	0.15288
1476.72	0.11269
1464.37	0.10544
1452.01	0.12460
1439.65	0.11436
1427.29	0.09678
1414.94	0.10875
1402.58	0.10799
1390.22	0.10507
1377.86	0.10580
1365.5	0.09217
1353.15	0.07936
1340.79	0.08819
1328.43	0.08933
1316.07	0.08003
1303.72	0.08185
1291.36	0.08547
1279	0.09170
1266.64	0.10636
1254.29	0.11815
1241.93	0.13420
1229.57	0.13866
1217.21	0.11412
1204.86	0.08437
1192.5	0.06727
1180.14	0.06748
1167.78	0.07743
1155.43	0.07257
1143.07	0.06236
1130.71	0.05727
1118.35	0.05668
1106	0.05765
1093.64	0.05542
1081.28	0.06499
1068.92	0.07324
1056.57	0.07437
1044.21	0.06529
1031.85	0.05785
1019.49	0.05897
1007.14	0.05644
994.78	0.04491
982.422	0.03809
970.065	0.03716
957.707	0.03739
945.35	0.03838
932.992	0.03607
920.635	0.03282
908.277	0.02993
895.92	0.02900
883.562	0.02954
871.205	0.03057
858.847	0.03518
846.49	0.03787
834.132	0.04151
821.774	0.04259
809.417	0.04458
797.059	0.04657
784.702	0.04981
772.344	0.05359
759.987	0.05825
747.629	0.06397
735.272	0.06968
722.914	0.07523
710.557	0.08104
698.199	0.08691
685.842	0.09109
673.484	0.09420
661.127	0.09691
648.769	0.09902
636.412	0.09976
624.054	0.10010
611.697	0.10063
599.339	0.10050
586.982	0.10110
574.624	0.10434
562.267	0.10883
549.909	0.11562
537.552	0.11677
525.194	0.11478
512.837	0.11363
500.479	0.11225
488.122	0.11177
475.764	0.10852
463.407	0.10558
451.049	0.10190
438.692	0.09971
426.334	0.09927
413.977	0.09672
401.619	0.09354
399.56	0.09335