Folder: Data/FTIR/db-LASE IR data/Silk only film

Note: FTIR/README
YargerLab FT-IR Data Repo

File: Silk only 6.21.22 1.dpt
3997.7	0.00264
3985.34	0.00327
3972.98	0.00287
3960.63	0.00283
3948.27	0.00256
3935.91	0.00280
3923.55	0.00402
3911.2	0.00197
3898.84	0.00221
3886.48	0.00244
3874.12	0.00119
3861.77	0.00339
3849.41	0.00210
3837.05	0.00243
3824.69	0.00053
3812.34	0.00275
3799.98	0.00282
3787.62	0.00303
3775.26	0.00202
3762.9	0.00304
3750.55	0.00374
3738.19	0.00275
3725.83	0.00143
3713.47	0.00339
3701.12	0.00378
3688.76	0.00503
3676.4	0.00368
3664.04	0.00646
3651.69	0.00926
3639.33	0.01232
3626.97	0.01571
3614.61	0.01931
3602.26	0.02241
3589.9	0.02831
3577.54	0.03005
3565.18	0.03660
3552.82	0.04025
3540.47	0.04626
3528.11	0.05041
3515.75	0.05398
3503.39	0.05650
3491.04	0.05994
3478.68	0.06204
3466.32	0.06367
3453.96	0.06718
3441.61	0.06954
3429.25	0.07322
3416.89	0.07408
3404.53	0.08096
3392.18	0.08342
3379.82	0.08802
3367.46	0.09293
3355.1	0.09838
3342.74	0.10435
3330.39	0.11080
3318.03	0.11850
3305.67	0.12526
3293.31	0.13095
3280.96	0.13372
3268.6	0.13287
3256.24	0.12663
3243.88	0.12004
3231.53	0.11303
3219.17	0.10583
3206.81	0.09835
3194.45	0.09040
3182.1	0.08233
3169.74	0.07401
3157.38	0.06661
3145.02	0.06066
3132.66	0.05689
3120.31	0.05569
3107.95	0.05576
3095.59	0.05777
3083.23	0.06122
3070.88	0.06179
3058.52	0.05933
3046.16	0.05258
3033.8	0.04730
3021.45	0.04151
3009.09	0.03779
2996.73	0.03877
2984.37	0.04205
2972.02	0.04146
2959.66	0.04101
2947.3	0.04194
2934.94	0.04571
2922.58	0.03976
2910.23	0.03301
2897.87	0.02898
2885.51	0.02846
2873.15	0.02618
2860.8	0.02315
2848.44	0.02179
2836.08	0.02034
2823.72	0.01902
2811.37	0.01848
2799.01	0.01740
2786.65	0.01586
2774.29	0.01434
2761.94	0.01311
2749.58	0.01254
2737.22	0.01081
2724.86	0.01020
2712.5	0.01011
2700.15	0.00935
2687.79	0.00890
2675.43	0.00843
2663.07	0.00868
2650.72	0.00885
2638.36	0.00802
2626	0.00793
2613.64	0.00741
2601.29	0.00705
2588.93	0.00629
2576.57	0.00504
2564.21	0.00542
2551.85	0.00430
2539.5	0.00483
2527.14	0.00516
2514.78	0.00379
2502.42	0.00467
2490.07	0.00341
2477.71	0.00380
2465.35	0.00386
2452.99	0.00367
2440.64	0.00315
2428.28	0.00322
2415.92	0.00300
2403.56	0.00263
2391.21	0.00260
2378.85	0.00292
2366.49	0.00299
2354.13	0.00355
2341.77	0.00316
2329.42	0.00340
2317.06	0.00368
2304.7	0.00443
2292.34	0.00466
2279.99	0.00442
2267.63	0.00252
2255.27	0.00245
2242.91	0.00362
2230.56	0.00223
2218.2	0.00241
2205.84	0.00318
2193.48	0.00332
2181.13	0.00074
2168.77	0.00323
2156.41	0.00124
2144.05	0.00158
2131.69	0.00226
2119.34	0.00361
2106.98	0.00336
2094.62	0.00234
2082.26	0.00378
2069.91	0.00279
2057.55	0.00329
2045.19	0.00237
2032.83	0.00135
2020.48	0.00080
2008.12	0.00117
1995.76	0.00384
1983.4	0.00260
1971.05	0.00227
1958.69	-0.00019
1946.33	0.00122
1933.97	0.00231
1921.61	0.00140
1909.26	0.00275
1896.9	0.00262
1884.54	0.00259
1872.18	0.00271
1859.83	0.00247
1847.47	0.00275
1835.11	0.00318
1822.75	0.00305
1810.4	0.00357
1798.04	0.00427
1785.68	0.00448
1773.32	0.00511
1760.97	0.00584
1748.61	0.00674
1736.25	0.00780
1723.89	0.00971
1711.53	0.01684
1699.18	0.03826
1686.82	0.06434
1674.46	0.09352
1662.1	0.12418
1649.75	0.15064
1637.39	0.16139
1625.03	0.15059
1612.67	0.11745
1600.32	0.08041
1587.96	0.06783
1575.6	0.07624
1563.24	0.09766
1550.89	0.12397
1538.53	0.14294
1526.17	0.15037
1513.81	0.15702
1501.45	0.13813
1489.1	0.10127
1476.74	0.07526
1464.38	0.07152
1452.02	0.08089
1439.67	0.07023
1427.31	0.06156
1414.95	0.07222
1402.59	0.07065
1390.24	0.06933
1377.88	0.07121
1365.52	0.06086
1353.16	0.05234
1340.81	0.06013
1328.45	0.06191
1316.09	0.05475
1303.73	0.05649
1291.37	0.05936
1279.02	0.06318
1266.66	0.07150
1254.3	0.08036
1241.94	0.09167
1229.59	0.09400
1217.23	0.07773
1204.87	0.05780
1192.51	0.04615
1180.16	0.04626
1167.8	0.05140
1155.44	0.04813
1143.08	0.04158
1130.73	0.03854
1118.37	0.03833
1106.01	0.03896
1093.65	0.03706
1081.29	0.04319
1068.94	0.04846
1056.58	0.04999
1044.22	0.04402
1031.86	0.03962
1019.51	0.04106
1007.15	0.03817
994.791	0.02736
982.433	0.02257
970.076	0.02241
957.718	0.02455
945.36	0.02590
933.003	0.02396
920.645	0.02167
908.287	0.01994
895.93	0.01963
883.572	0.01967
871.214	0.02053
858.857	0.02436
846.499	0.02635
834.141	0.02915
821.784	0.03002
809.426	0.03159
797.068	0.03346
784.711	0.03543
772.353	0.03796
759.996	0.04083
747.638	0.04474
735.28	0.04823
722.923	0.05161
710.565	0.05503
698.207	0.05873
685.85	0.06179
673.492	0.06468
661.134	0.06629
648.777	0.06758
636.419	0.06801
624.061	0.06870
611.704	0.06910
599.346	0.06940
586.988	0.07118
574.631	0.07381
562.273	0.07744
549.915	0.08080
537.558	0.08186
525.2	0.08146
512.843	0.08155
500.485	0.08136
488.127	0.08100
475.77	0.07864
463.412	0.07710
451.054	0.07506
438.697	0.07261
426.339	0.07191
413.981	0.07235
401.624	0.06991
399.564	0.06953

File: Silk only 6.21.22 2.dpt
3997.7	0.00336
3985.34	0.00425
3972.98	0.00357
3960.63	0.00326
3948.27	0.00327
3935.91	0.00349
3923.55	0.00456
3911.2	0.00287
3898.84	0.00423
3886.48	0.00449
3874.12	0.00353
3861.77	0.00513
3849.41	0.00397
3837.05	0.00443
3824.69	0.00315
3812.34	0.00358
3799.98	0.00416
3787.62	0.00247
3775.26	0.00354
3762.9	0.00392
3750.55	0.00441
3738.19	0.00488
3725.83	0.00308
3713.47	0.00467
3701.12	0.00395
3688.76	0.00611
3676.4	0.00514
3664.04	0.00470
3651.69	0.00783
3639.33	0.00834
3626.97	0.01137
3614.61	0.01268
3602.26	0.01362
3589.9	0.01649
3577.54	0.01707
3565.18	0.02158
3552.82	0.02207
3540.47	0.02516
3528.11	0.02775
3515.75	0.02849
3503.39	0.03011
3491.04	0.03105
3478.68	0.03253
3466.32	0.03447
3453.96	0.03456
3441.61	0.03675
3429.25	0.03898
3416.89	0.03895
3404.53	0.04277
3392.18	0.04446
3379.82	0.04655
3367.46	0.04926
3355.1	0.05231
3342.74	0.05425
3330.39	0.05870
3318.03	0.06226
3305.67	0.06575
3293.31	0.06913
3280.96	0.06999
3268.6	0.06899
3256.24	0.06648
3243.88	0.06321
3231.53	0.05940
3219.17	0.05619
3206.81	0.05277
3194.45	0.04809
3182.1	0.04379
3169.74	0.03957
3157.38	0.03503
3145.02	0.03261
3132.66	0.03075
3120.31	0.03011
3107.95	0.02954
3095.59	0.03178
3083.23	0.03253
3070.88	0.03337
3058.52	0.03165
3046.16	0.02867
3033.8	0.02593
3021.45	0.02281
3009.09	0.02141
2996.73	0.02158
2984.37	0.02295
2972.02	0.02237
2959.66	0.02241
2947.3	0.02266
2934.94	0.02497
2922.58	0.02145
2910.23	0.01840
2897.87	0.01606
2885.51	0.01567
2873.15	0.01470
2860.8	0.01320
2848.44	0.01276
2836.08	0.01214
2823.72	0.01142
2811.37	0.01107
2799.01	0.01053
2786.65	0.00973
2774.29	0.00892
2761.94	0.00861
2749.58	0.00812
2737.22	0.00679
2724.86	0.00688
2712.5	0.00644
2700.15	0.00630
2687.79	0.00622
2675.43	0.00559
2663.07	0.00565
2650.72	0.00642
2638.36	0.00549
2626	0.00561
2613.64	0.00485
2601.29	0.00457
2588.93	0.00420
2576.57	0.00388
2564.21	0.00418
2551.85	0.00401
2539.5	0.00387
2527.14	0.00445
2514.78	0.00307
2502.42	0.00384
2490.07	0.00293
2477.71	0.00312
2465.35	0.00327
2452.99	0.00285
2440.64	0.00296
2428.28	0.00289
2415.92	0.00278
2403.56	0.00217
2391.21	0.00245
2378.85	0.00295
2366.49	0.00269
2354.13	0.00326
2341.77	0.00273
2329.42	0.00329
2317.06	0.00298
2304.7	0.00353
2292.34	0.00346
2279.99	0.00418
2267.63	0.00231
2255.27	0.00293
2242.91	0.00290
2230.56	0.00217
2218.2	0.00184
2205.84	0.00186
2193.48	0.00300
2181.13	0.00088
2168.77	0.00461
2156.41	0.00016
2144.05	0.00127
2131.69	0.00166
2119.34	0.00277
2106.98	0.00306
2094.62	0.00237
2082.26	0.00285
2069.91	0.00210
2057.55	0.00138
2045.19	0.00161
2032.83	0.00148
2020.48	0.00034
2008.12	0.00151
1995.76	0.00254
1983.4	0.00170
1971.05	0.00277
1958.69	0.00016
1946.33	0.00073
1933.97	0.00150
1921.61	0.00121
1909.26	0.00206
1896.9	0.00190
1884.54	0.00197
1872.18	0.00201
1859.83	0.00198
1847.47	0.00204
1835.11	0.00213
1822.75	0.00244
1810.4	0.00248
1798.04	0.00313
1785.68	0.00304
1773.32	0.00372
1760.97	0.00363
1748.61	0.00409
1736.25	0.00507
1723.89	0.00546
1711.53	0.00986
1699.18	0.02202
1686.82	0.03676
1674.46	0.05297
1662.1	0.06914
1649.75	0.08270
1637.39	0.08865
1625.03	0.08082
1612.67	0.06169
1600.32	0.04271
1587.96	0.03643
1575.6	0.04106
1563.24	0.05292
1550.89	0.06687
1538.53	0.07701
1526.17	0.08203
1513.81	0.08592
1501.45	0.07650
1489.1	0.05725
1476.74	0.04267
1464.38	0.03988
1452.02	0.04466
1439.67	0.03919
1427.31	0.03419
1414.95	0.03949
1402.59	0.03856
1390.24	0.03770
1377.88	0.03899
1365.52	0.03384
1353.16	0.02937
1340.81	0.03314
1328.45	0.03391
1316.09	0.03027
1303.73	0.03122
1291.37	0.03296
1279.02	0.03514
1266.66	0.03960
1254.3	0.04440
1241.94	0.05038
1229.59	0.05199
1217.23	0.04391
1204.87	0.03335
1192.51	0.02667
1180.16	0.02635
1167.8	0.02905
1155.44	0.02729
1143.08	0.02375
1130.73	0.02188
1118.37	0.02161
1106.01	0.02174
1093.65	0.02034
1081.29	0.02358
1068.94	0.02654
1056.58	0.02722
1044.22	0.02428
1031.86	0.02192
1019.51	0.02286
1007.15	0.02197
994.791	0.01591
982.433	0.01347
970.076	0.01336
957.718	0.01449
945.36	0.01530
933.003	0.01441
920.645	0.01301
908.287	0.01194
895.93	0.01159
883.572	0.01157
871.214	0.01218
858.857	0.01410
846.499	0.01535
834.141	0.01681
821.784	0.01715
809.426	0.01808
797.068	0.01919
784.711	0.02017
772.353	0.02146
759.996	0.02309
747.638	0.02558
735.28	0.02717
722.923	0.02893
710.565	0.03099
698.207	0.03299
685.85	0.03455
673.492	0.03647
661.134	0.03721
648.777	0.03802
636.419	0.03838
624.061	0.03885
611.704	0.03926
599.346	0.03942
586.988	0.04103
574.631	0.04234
562.273	0.04393
549.915	0.04644
537.558	0.04715
525.2	0.04682
512.843	0.04683
500.485	0.04686
488.127	0.04661
475.77	0.04590
463.412	0.04546
451.054	0.04380
438.697	0.04320
426.339	0.04341
413.981	0.04357
401.624	0.04206
399.564	0.04239

File: Silk only 6_28_2022 1.dpt
3997.7	0.00594
3985.34	0.00518
3972.98	0.00629
3960.63	0.00612
3948.27	0.00582
3935.91	0.00528
3923.55	0.00545
3911.2	0.00433
3898.84	0.00377
3886.48	0.00488
3874.12	0.00379
3861.77	0.00423
3849.41	0.00606
3837.05	0.00432
3824.69	0.00474
3812.34	0.00401
3799.98	0.00402
3787.62	0.00405
3775.26	0.00461
3762.9	0.00539
3750.55	0.00420
3738.19	0.00586
3725.83	0.00562
3713.47	0.00464
3701.12	0.00568
3688.76	0.00720
3676.4	0.01073
3664.04	0.01638
3651.69	0.02111
3639.33	0.02893
3626.97	0.03879
3614.61	0.04514
3602.26	0.05632
3589.9	0.06610
3577.54	0.07807
3565.18	0.08973
3552.82	0.10167
3540.47	0.11495
3528.11	0.12600
3515.75	0.13491
3503.39	0.14446
3491.04	0.15137
3478.68	0.15778
3466.32	0.16412
3453.96	0.16822
3441.61	0.17462
3429.25	0.18101
3416.89	0.18977
3404.53	0.20014
3392.18	0.21080
3379.82	0.22195
3367.46	0.23471
3355.1	0.25043
3342.74	0.26803
3330.39	0.28575
3318.03	0.30402
3305.67	0.32426
3293.31	0.33853
3280.96	0.34514
3268.6	0.34268
3256.24	0.32723
3243.88	0.30860
3231.53	0.29037
3219.17	0.26979
3206.81	0.25033
3194.45	0.22922
3182.1	0.20543
3169.74	0.18304
3157.38	0.16292
3145.02	0.14844
3132.66	0.13680
3120.31	0.13412
3107.95	0.13568
3095.59	0.14055
3083.23	0.14880
3070.88	0.15082
3058.52	0.14388
3046.16	0.12988
3033.8	0.11355
3021.45	0.09957
3009.09	0.08981
2996.73	0.09104
2984.37	0.09883
2972.02	0.09515
2959.66	0.09323
2947.3	0.09905
2934.94	0.10774
2922.58	0.09157
2910.23	0.07529
2897.87	0.06508
2885.51	0.06265
2873.15	0.05944
2860.8	0.05155
2848.44	0.04801
2836.08	0.04511
2823.72	0.04386
2811.37	0.04138
2799.01	0.03806
2786.65	0.03447
2774.29	0.03091
2761.94	0.02772
2749.58	0.02534
2737.22	0.02349
2724.86	0.02183
2712.5	0.01989
2700.15	0.01925
2687.79	0.01886
2675.43	0.01783
2663.07	0.01707
2650.72	0.01680
2638.36	0.01560
2626	0.01484
2613.64	0.01518
2601.29	0.01420
2588.93	0.01254
2576.57	0.01193
2564.21	0.00982
2551.85	0.01000
2539.5	0.00998
2527.14	0.00903
2514.78	0.00969
2502.42	0.00828
2490.07	0.00915
2477.71	0.00842
2465.35	0.00754
2452.99	0.00795
2440.64	0.00698
2428.28	0.00752
2415.92	0.00688
2403.56	0.00675
2391.21	0.00626
2378.85	0.00657
2366.49	0.00622
2354.13	0.00614
2341.77	0.00688
2329.42	0.00734
2317.06	0.00901
2304.7	0.00750
2292.34	0.00808
2279.99	0.00741
2267.63	0.00623
2255.27	0.00686
2242.91	0.00734
2230.56	0.00668
2218.2	0.00570
2205.84	0.00790
2193.48	0.00721
2181.13	0.00704
2168.77	0.00772
2156.41	0.00396
2144.05	0.00635
2131.69	0.00569
2119.34	0.00805
2106.98	0.00843
2094.62	0.00664
2082.26	0.00672
2069.91	0.00869
2057.55	0.00754
2045.19	0.00750
2032.83	0.00365
2020.48	0.00414
2008.12	0.00434
1995.76	0.00492
1983.4	0.00538
1971.05	0.00482
1958.69	0.00420
1946.33	0.00376
1933.97	0.00447
1921.61	0.00516
1909.26	0.00597
1896.9	0.00559
1884.54	0.00593
1872.18	0.00620
1859.83	0.00569
1847.47	0.00624
1835.11	0.00689
1822.75	0.00762
1810.4	0.00799
1798.04	0.00881
1785.68	0.01013
1773.32	0.01143
1760.97	0.01279
1748.61	0.01505
1736.25	0.01801
1723.89	0.02288
1711.53	0.03996
1699.18	0.09531
1686.82	0.17022
1674.46	0.26040
1662.1	0.36290
1649.75	0.45802
1637.39	0.49550
1625.03	0.44112
1612.67	0.31445
1600.32	0.20416
1587.96	0.17187
1575.6	0.19865
1563.24	0.26644
1550.89	0.35686
1538.53	0.42464
1526.17	0.44983
1513.81	0.47389
1501.45	0.38667
1489.1	0.26150
1476.74	0.18671
1464.38	0.18003
1452.02	0.20818
1439.67	0.17475
1427.31	0.15264
1414.95	0.18240
1402.59	0.17535
1390.24	0.17199
1377.88	0.17911
1365.52	0.14913
1353.16	0.12777
1340.81	0.14843
1328.45	0.15263
1316.09	0.13305
1303.73	0.14006
1291.37	0.15011
1279.02	0.16112
1266.66	0.18534
1254.3	0.21286
1241.94	0.24609
1229.59	0.24967
1217.23	0.19481
1204.87	0.13879
1192.51	0.10942
1180.16	0.11113
1167.8	0.12515
1155.44	0.11486
1143.08	0.09766
1130.73	0.08962
1118.37	0.08915
1106.01	0.08975
1093.65	0.08378
1081.29	0.10063
1068.94	0.11338
1056.58	0.11618
1044.22	0.10067
1031.86	0.08936
1019.51	0.09510
1007.15	0.08827
994.791	0.06057
982.433	0.05031
970.076	0.05043
957.718	0.05546
945.36	0.05946
933.003	0.05501
920.645	0.04977
908.287	0.04536
895.93	0.04376
883.572	0.04435
871.214	0.04741
858.857	0.05569
846.499	0.06076
834.141	0.06710
821.784	0.06925
809.426	0.07312
797.068	0.07711
784.711	0.08182
772.353	0.08777
759.996	0.09518
747.638	0.10441
735.28	0.11260
722.923	0.12043
710.565	0.12879
698.207	0.13764
685.85	0.14495
673.492	0.15141
661.134	0.15624
648.777	0.15772
636.419	0.15878
624.061	0.15871
611.704	0.15852
599.346	0.15941
586.988	0.16275
574.631	0.16789
562.273	0.17655
549.915	0.18514
537.558	0.18635
525.2	0.18394
512.843	0.18324
500.485	0.18081
488.127	0.17844
475.77	0.17194
463.412	0.16469
451.054	0.15789
438.697	0.15221
426.339	0.14782
413.981	0.14369
401.624	0.14029
399.564	0.13917

File: Silk only 6_28_2022 2.dpt
3997.7	0.00589
3985.34	0.00652
3972.98	0.00787
3960.63	0.00663
3948.27	0.00696
3935.91	0.00691
3923.55	0.00686
3911.2	0.00636
3898.84	0.00514
3886.48	0.00564
3874.12	0.00629
3861.77	0.00680
3849.41	0.01105
3837.05	0.00565
3824.69	0.00839
3812.34	0.00738
3799.98	0.00400
3787.62	0.00587
3775.26	0.00721
3762.9	0.00699
3750.55	0.00508
3738.19	0.00935
3725.83	0.00613
3713.47	0.00467
3701.12	0.00590
3688.76	0.00591
3676.4	0.01030
3664.04	0.01905
3651.69	0.02247
3639.33	0.03132
3626.97	0.04213
3614.61	0.05030
3602.26	0.06067
3589.9	0.07181
3577.54	0.08337
3565.18	0.09738
3552.82	0.10762
3540.47	0.12188
3528.11	0.13449
3515.75	0.14377
3503.39	0.15147
3491.04	0.16132
3478.68	0.16742
3466.32	0.17320
3453.96	0.17835
3441.61	0.18457
3429.25	0.19176
3416.89	0.20141
3404.53	0.21162
3392.18	0.22295
3379.82	0.23395
3367.46	0.24828
3355.1	0.26351
3342.74	0.28159
3330.39	0.29898
3318.03	0.31933
3305.67	0.33805
3293.31	0.35150
3280.96	0.35825
3268.6	0.35619
3256.24	0.34017
3243.88	0.32156
3231.53	0.30262
3219.17	0.28248
3206.81	0.26338
3194.45	0.24075
3182.1	0.21683
3169.74	0.19385
3157.38	0.17364
3145.02	0.15682
3132.66	0.14629
3120.31	0.14250
3107.95	0.14412
3095.59	0.14955
3083.23	0.15782
3070.88	0.15947
3058.52	0.15265
3046.16	0.13857
3033.8	0.12143
3021.45	0.10684
3009.09	0.09703
2996.73	0.09811
2984.37	0.10504
2972.02	0.10183
2959.66	0.09939
2947.3	0.10511
2934.94	0.11379
2922.58	0.09650
2910.23	0.07997
2897.87	0.06954
2885.51	0.06743
2873.15	0.06370
2860.8	0.05539
2848.44	0.05152
2836.08	0.04858
2823.72	0.04714
2811.37	0.04530
2799.01	0.04122
2786.65	0.03721
2774.29	0.03407
2761.94	0.03068
2749.58	0.02827
2737.22	0.02599
2724.86	0.02404
2712.5	0.02218
2700.15	0.02152
2687.79	0.02102
2675.43	0.01963
2663.07	0.01876
2650.72	0.01882
2638.36	0.01809
2626	0.01751
2613.64	0.01696
2601.29	0.01607
2588.93	0.01414
2576.57	0.01293
2564.21	0.01216
2551.85	0.01162
2539.5	0.01115
2527.14	0.01106
2514.78	0.01118
2502.42	0.01088
2490.07	0.01083
2477.71	0.00977
2465.35	0.00928
2452.99	0.00951
2440.64	0.00890
2428.28	0.00878
2415.92	0.00834
2403.56	0.00748
2391.21	0.00767
2378.85	0.00774
2366.49	0.00736
2354.13	0.00767
2341.77	0.00706
2329.42	0.00931
2317.06	0.00925
2304.7	0.00865
2292.34	0.00950
2279.99	0.00885
2267.63	0.00848
2255.27	0.00786
2242.91	0.01014
2230.56	0.00776
2218.2	0.00804
2205.84	0.00868
2193.48	0.00949
2181.13	0.00782
2168.77	0.01039
2156.41	0.00500
2144.05	0.00635
2131.69	0.00732
2119.34	0.00872
2106.98	0.00953
2094.62	0.00846
2082.26	0.00790
2069.91	0.01005
2057.55	0.00898
2045.19	0.00792
2032.83	0.00646
2020.48	0.00589
2008.12	0.00640
1995.76	0.00714
1983.4	0.00750
1971.05	0.00445
1958.69	0.00395
1946.33	0.00474
1933.97	0.00449
1921.61	0.00539
1909.26	0.00554
1896.9	0.00666
1884.54	0.00690
1872.18	0.00727
1859.83	0.00626
1847.47	0.00747
1835.11	0.00728
1822.75	0.00801
1810.4	0.00790
1798.04	0.00997
1785.68	0.01042
1773.32	0.01122
1760.97	0.01244
1748.61	0.01451
1736.25	0.01821
1723.89	0.02225
1711.53	0.03937
1699.18	0.08867
1686.82	0.15476
1674.46	0.22916
1662.1	0.31108
1649.75	0.39183
1637.39	0.42074
1625.03	0.38357
1612.67	0.28455
1600.32	0.19007
1587.96	0.16082
1575.6	0.18194
1563.24	0.24080
1550.89	0.31082
1538.53	0.36335
1526.17	0.38348
1513.81	0.40224
1501.45	0.33843
1489.1	0.23446
1476.74	0.17229
1464.38	0.16580
1452.02	0.19129
1439.67	0.16111
1427.31	0.14189
1414.95	0.16769
1402.59	0.16117
1390.24	0.15818
1377.88	0.16325
1365.52	0.13758
1353.16	0.11834
1340.81	0.13583
1328.45	0.13908
1316.09	0.12239
1303.73	0.12796
1291.37	0.13616
1279.02	0.14520
1266.66	0.16517
1254.3	0.18755
1241.94	0.21407
1229.59	0.21653
1217.23	0.17237
1204.87	0.12511
1192.51	0.09989
1180.16	0.10103
1167.8	0.11276
1155.44	0.10399
1143.08	0.08919
1130.73	0.08226
1118.37	0.08133
1106.01	0.08185
1093.65	0.07698
1081.29	0.09081
1068.94	0.10133
1056.58	0.10406
1044.22	0.09091
1031.86	0.08081
1019.51	0.08541
1007.15	0.07978
994.791	0.05578
982.433	0.04665
970.076	0.04659
957.718	0.05092
945.36	0.05426
933.003	0.05049
920.645	0.04563
908.287	0.04185
895.93	0.04020
883.572	0.04049
871.214	0.04301
858.857	0.04990
846.499	0.05407
834.141	0.05919
821.784	0.06098
809.426	0.06413
797.068	0.06747
784.711	0.07099
772.353	0.07559
759.996	0.08147
747.638	0.08815
735.28	0.09452
722.923	0.10089
710.565	0.10719
698.207	0.11384
685.85	0.11905
673.492	0.12336
661.134	0.12724
648.777	0.12835
636.419	0.12871
624.061	0.12833
611.704	0.12832
599.346	0.12858
586.988	0.13060
574.631	0.13472
562.273	0.14059
549.915	0.14556
537.558	0.14751
525.2	0.14451
512.843	0.14428
500.485	0.14269
488.127	0.14054
475.77	0.13681
463.412	0.13131
451.054	0.12639
438.697	0.12263
426.339	0.11879
413.981	0.11749
401.624	0.11478
399.564	0.11409